STUDYID,Study
USUBJID,Subject
ARM,Arm
DOMAIN,Domain
VS,Observation
VISIT,Visit
VSTESTCD,Observation.code
VSDTC,Observation.effectiveDateTime
//
VS,Observation.valueQuantity
VSSTRES,Quantity.value
VSSTRESU,Quantity.unit