@prefix n4sch: <neo4j://graph.schema#> .

<neo4j://graph.schema#Metadata/mdr3_2/Data%20Extraction%20Standard/MDR3_2> a <neo4j://graph.schema#Data%20Extraction%20Standard>;
  n4sch:_filename_ "export_sdtm_2domains.ttl";
  n4sch:HAS_TABLE <neo4j://graph.schema#Metadata/mdr3_2/Source%20Data%20Table/DM>, <neo4j://graph.schema#Metadata/mdr3_2/Source%20Data%20Table/AE>;
  n4sch:_tag_ "MDR3_2" .

<neo4j://graph.schema#Metadata/mdr3_2/Source%20Data%20Table/DM> a <neo4j://graph.schema#Source%20Data%20Table>;
  n4sch:_domain_ "DM";
  n4sch:SortOrder "STUDYID,USUBJID" .

<neo4j://graph.schema#Metadata/mdr3_2/Source%20Data%20Table/AE> a <neo4j://graph.schema#Source%20Data%20Table>;
  n4sch:_domain_ "AE";
  n4sch:SortOrder "USUBJID,STUDYID,AECAT,AESCAT,AETERM,AELOC,AEREFID,AESTDTC,AESEQ" .

<neo4j://graph.schema#Class/Demographics> a n4sch:Class;
  n4sch:CoreClass true;
  n4sch:CLASS_RELATES_TO <neo4j://graph.schema#Class/Study>, <neo4j://graph.schema#Class/Subject%20Identifier%20for%20the%20Study>,
    <neo4j://graph.schema#Class/Demographics%20Identifiers>, <neo4j://graph.schema#Class/Subject%20Reference%20Start%20Date/Time>,
    <neo4j://graph.schema#Class/Subject%20Reference%20End%20Date/Time>, <neo4j://graph.schema#Class/Date/Time%20of%20First%20Study%20Treatment>,
    <neo4j://graph.schema#Class/Date/Time%20of%20Last%20Study%20Treatment>, <neo4j://graph.schema#Class/Date/Time%20of%20Informed%20Consent>,
    <neo4j://graph.schema#Class/Date/Time%20of%20End%20of%20Participation>, <neo4j://graph.schema#Class/Date/Time%20of%20Death>,
    <neo4j://graph.schema#Class/Subject%20Death%20Flag>, <neo4j://graph.schema#Class/Study%20Site%20Identifier>,
    <neo4j://graph.schema#Class/Investigator%20Identifier>, <neo4j://graph.schema#Class/Investigator%20Name>,
    <neo4j://graph.schema#Class/Date/Time%20of%20Birth>, <neo4j://graph.schema#Class/Age>,
    <neo4j://graph.schema#Class/Age%20Units>, <neo4j://graph.schema#Class/Sex>, <neo4j://graph.schema#Class/Race>,
    <neo4j://graph.schema#Class/Ethnicity>, <neo4j://graph.schema#Class/Planned%20Arm%20Code>,
    <neo4j://graph.schema#Class/Description%20of%20Planned%20Arm>, <neo4j://graph.schema#Class/Actual%20Arm%20Code>,
    <neo4j://graph.schema#Class/Description%20of%20Actual%20Arm>, <neo4j://graph.schema#Class/Country>,
    <neo4j://graph.schema#Class/Demographics%20Date/Time%20of%20Collection>, <neo4j://graph.schema#Class/Study%20Day%20of%20Collection>;
  n4sch:label "Demographics";
  n4sch:from_domains "DM";
  n4sch:create true .

<neo4j://graph.schema#Class/Study> a n4sch:Class;
  n4sch:label "Study";
  n4sch:from_domains "AE,DM";
  n4sch:CoreClass false;
  n4sch:HAS_PROPERTY <neo4j://graph.schema#Property/Study/STUDYID> .

<neo4j://graph.schema#Class/Adverse%20Events> a n4sch:Class;
  n4sch:CLASS_RELATES_TO <neo4j://graph.schema#Class/Study>, <neo4j://graph.schema#Class/Adverse%20Events%20Identifiers>,
    <neo4j://graph.schema#Class/Subject%20Identifier%20for%20the%20Study>, <neo4j://graph.schema#Class/Reported%20Term%20for%20the%20Adverse%20Event>,
    <neo4j://graph.schema#Class/Adverse%20Events%20Modified%20Reported%20Term>, <neo4j://graph.schema#Class/Adverse%20Events%20Lowest%20Level%20Term>,
    <neo4j://graph.schema#Class/Adverse%20Events%20Lowest%20Level%20Term%20Code>, <neo4j://graph.schema#Class/Adverse%20Events%20Dictionary-Derived%20Term>,
    <neo4j://graph.schema#Class/Adverse%20Events%20Preferred%20Term%20Code>, <neo4j://graph.schema#Class/Adverse%20Events%20High%20Level%20Term>,
    <neo4j://graph.schema#Class/Adverse%20Events%20High%20Level%20Term%20Code>, <neo4j://graph.schema#Class/Adverse%20Events%20High%20Level%20Group%20Term>,
    <neo4j://graph.schema#Class/Adverse%20Events%20High%20Level%20Group%20Term%20Code>,
    <neo4j://graph.schema#Class/Category%20for%20Adverse%20Event>, <neo4j://graph.schema#Class/Subcategory%20for%20Adverse%20Event>,
    <neo4j://graph.schema#Class/Pre-Specified%20Adverse%20Event>, <neo4j://graph.schema#Class/Adverse%20Events%20Body%20System%20or%20Organ%20Class>,
    <neo4j://graph.schema#Class/Adverse%20Events%20Body%20System%20or%20Organ%20Class%20Code>,
    <neo4j://graph.schema#Class/Adverse%20Events%20Primary%20System%20Organ%20Class>,
    <neo4j://graph.schema#Class/Adverse%20Events%20Primary%20System%20Organ%20Class%20Code>,
    <neo4j://graph.schema#Class/Adverse%20Events%20Location%20of%20Event>, <neo4j://graph.schema#Class/Severity/Intensity>,
    <neo4j://graph.schema#Class/Adverse%20Events%20Serious%20Event>, <neo4j://graph.schema#Class/Adverse%20Events%20Action%20Taken%20with%20Study%20Treatment>,
    <neo4j://graph.schema#Class/Adverse%20Events%20Other%20Action%20Taken>, <neo4j://graph.schema#Class/Adverse%20Events%20Causality>,
    <neo4j://graph.schema#Class/Adverse%20Events%20Relationship%20to%20Non-Study%20Treatment>,
    <neo4j://graph.schema#Class/Pattern%20of%20Adverse%20Event>, <neo4j://graph.schema#Class/Outcome%20of%20Adverse%20Event>,
    <neo4j://graph.schema#Class/Adverse%20Events%20Involves%20Cancer>, <neo4j://graph.schema#Class/Adverse%20Events%20Congenital%20Anomaly%20or%20Birth%20Defect>,
    <neo4j://graph.schema#Class/Adverse%20Events%20Persist%20or%20Signif%20Disability/Incapacity>,
    <neo4j://graph.schema#Class/Adverse%20Events%20Results%20in%20Death>, <neo4j://graph.schema#Class/Adverse%20Events%20Requires%20or%20Prolongs%20Hospitalization>,
    <neo4j://graph.schema#Class/Adverse%20Events%20Is%20Life%20Threatening>, <neo4j://graph.schema#Class/Adverse%20Events%20Occurred%20with%20Overdose>,
    <neo4j://graph.schema#Class/Adverse%20Events%20Other%20Medically%20Important%20Serious%20Event>,
    <neo4j://graph.schema#Class/Adverse%20Events%20Concomitant%20or%20Additional%20Trtmnt%20Given>,
    <neo4j://graph.schema#Class/Standard%20Toxicity%20Grade>, <neo4j://graph.schema#Class/Adverse%20Events%20Epoch>,
    <neo4j://graph.schema#Class/Start%20Date/Time%20of%20Adverse%20Event>, <neo4j://graph.schema#Class/End%20Date/Time%20of%20Adverse%20Event>,
    <neo4j://graph.schema#Class/Study%20Day%20of%20Start%20of%20Adverse%20Event>, <neo4j://graph.schema#Class/Study%20Day%20of%20End%20of%20Adverse%20Event>,
    <neo4j://graph.schema#Class/Duration%20of%20Adverse%20Event>, <neo4j://graph.schema#Class/Adverse%20Events%20End%20Relative%20to%20Reference%20Period>,
    <neo4j://graph.schema#Class/Adverse%20Events%20End%20Relative%20to%20Reference%20Time%20Point>,
    <neo4j://graph.schema#Class/Adverse%20Events%20End%20Reference%20Time%20Point>;
  n4sch:create true;
  n4sch:label "Adverse Events";
  n4sch:from_domains "AE";
  n4sch:CoreClass true .

<neo4j://graph.schema#Class/Subject> a n4sch:Class;
  n4sch:label "Subject";
  n4sch:CoreClass false;
  n4sch:from_domains "AE,DM";
  n4sch:CLASS_RELATES_TO <neo4j://graph.schema#Class/Study>, <neo4j://graph.schema#Class/Adverse%20Events%20Identifiers>,
    <neo4j://graph.schema#Class/Demographics>, <neo4j://graph.schema#Class/Adverse%20Events%20End%20Reference%20Time%20Point>,
    <neo4j://graph.schema#Class/Adverse%20Events%20Modified%20Reported%20Term>, <neo4j://graph.schema#Class/Standard%20Toxicity%20Grade>,
    <neo4j://graph.schema#Class/Adverse%20Events%20Relationship%20to%20Non-Study%20Treatment>,
    <neo4j://graph.schema#Class/Subject%20Identifier%20for%20the%20Study>, <neo4j://graph.schema#Class/Pattern%20of%20Adverse%20Event>,
    <neo4j://graph.schema#Class/Adverse%20Events%20Lowest%20Level%20Term>, <neo4j://graph.schema#Class/Adverse%20Events%20Occurred%20with%20Overdose>,
    <neo4j://graph.schema#Class/Study%20Day%20of%20Start%20of%20Adverse%20Event>, <neo4j://graph.schema#Class/Adverse%20Events%20End%20Relative%20to%20Reference%20Time%20Point>,
    <neo4j://graph.schema#Class/Adverse%20Events%20Lowest%20Level%20Term%20Code>, <neo4j://graph.schema#Class/Adverse%20Events%20Congenital%20Anomaly%20or%20Birth%20Defect>,
    <neo4j://graph.schema#Class/Adverse%20Events%20Other%20Action%20Taken>, <neo4j://graph.schema#Class/Adverse%20Events%20High%20Level%20Term>,
    <neo4j://graph.schema#Class/Adverse%20Events%20Primary%20System%20Organ%20Class%20Code>,
    <neo4j://graph.schema#Class/Adverse%20Events%20Action%20Taken%20with%20Study%20Treatment>,
    <neo4j://graph.schema#Class/Duration%20of%20Adverse%20Event>, <neo4j://graph.schema#Class/Subcategory%20for%20Adverse%20Event>,
    <neo4j://graph.schema#Class/Adverse%20Events%20Dictionary-Derived%20Term>, <neo4j://graph.schema#Class/Adverse%20Events>,
    <neo4j://graph.schema#Class/Adverse%20Events%20Results%20in%20Death>, <neo4j://graph.schema#Class/End%20Date/Time%20of%20Adverse%20Event>,
    <neo4j://graph.schema#Class/Category%20for%20Adverse%20Event>, <neo4j://graph.schema#Class/Adverse%20Events%20Serious%20Event>,
    <neo4j://graph.schema#Class/Adverse%20Events%20Causality>, <neo4j://graph.schema#Class/Adverse%20Events%20Preferred%20Term%20Code>,
    <neo4j://graph.schema#Class/Adverse%20Events%20Location%20of%20Event>, <neo4j://graph.schema#Class/Adverse%20Events%20Is%20Life%20Threatening>,
    <neo4j://graph.schema#Class/Study%20Day%20of%20End%20of%20Adverse%20Event>, <neo4j://graph.schema#Class/Reported%20Term%20for%20the%20Adverse%20Event>,
    <neo4j://graph.schema#Class/Severity/Intensity>, <neo4j://graph.schema#Class/Adverse%20Events%20Requires%20or%20Prolongs%20Hospitalization>,
    <neo4j://graph.schema#Class/Adverse%20Events%20Other%20Medically%20Important%20Serious%20Event>,
    <neo4j://graph.schema#Class/Outcome%20of%20Adverse%20Event>, <neo4j://graph.schema#Class/Adverse%20Events%20High%20Level%20Group%20Term>,
    <neo4j://graph.schema#Class/Adverse%20Events%20High%20Level%20Group%20Term%20Code>,
    <neo4j://graph.schema#Class/Adverse%20Events%20High%20Level%20Term%20Code>, <neo4j://graph.schema#Class/Adverse%20Events%20Body%20System%20or%20Organ%20Class%20Code>,
    <neo4j://graph.schema#Class/Adverse%20Events%20End%20Relative%20to%20Reference%20Period>,
    <neo4j://graph.schema#Class/Adverse%20Events%20Persist%20or%20Signif%20Disability/Incapacity>,
    <neo4j://graph.schema#Class/Start%20Date/Time%20of%20Adverse%20Event>, <neo4j://graph.schema#Class/Adverse%20Events%20Epoch>,
    <neo4j://graph.schema#Class/Adverse%20Events%20Concomitant%20or%20Additional%20Trtmnt%20Given>,
    <neo4j://graph.schema#Class/Pre-Specified%20Adverse%20Event>, <neo4j://graph.schema#Class/Adverse%20Events%20Involves%20Cancer>,
    <neo4j://graph.schema#Class/Adverse%20Events%20Body%20System%20or%20Organ%20Class>,
    <neo4j://graph.schema#Class/Adverse%20Events%20Primary%20System%20Organ%20Class>;
  n4sch:HAS_PROPERTY <neo4j://graph.schema#Property/Subject/USUBJID> .

<neo4j://graph.schema#Property/Study/STUDYID> a n4sch:Property;
  n4sch:Class.label "Study";
  n4sch:label "STUDYID" .

<neo4j://graph.schema#Class/Adverse%20Events%20Identifiers> a n4sch:Class;
  n4sch:create true;
  n4sch:CoreClass false;
  n4sch:label "Adverse Events Identifiers";
  n4sch:from_domains "AE";
  n4sch:HAS_PROPERTY <neo4j://graph.schema#Property/Adverse%20Events%20Identifiers/--REFID>,
    <neo4j://graph.schema#Property/Adverse%20Events%20Identifiers/DOMAIN>, <neo4j://graph.schema#Property/Adverse%20Events%20Identifiers/--GRPID>,
    <neo4j://graph.schema#Property/Adverse%20Events%20Identifiers/--SPID>, <neo4j://graph.schema#Property/Adverse%20Events%20Identifiers/--SEQ> .

<neo4j://graph.schema#Property/Adverse%20Events%20Identifiers/--REFID> a n4sch:Property;
  n4sch:Class.label "Adverse Events Identifiers";
  n4sch:label "--REFID" .

<neo4j://graph.schema#Property/Adverse%20Events%20Identifiers/DOMAIN> a n4sch:Property;
  n4sch:Class.label "Adverse Events Identifiers";
  n4sch:label "DOMAIN" .

<neo4j://graph.schema#Property/Adverse%20Events%20Identifiers/--GRPID> a n4sch:Property;
  n4sch:label "--GRPID";
  n4sch:Class.label "Adverse Events Identifiers" .

<neo4j://graph.schema#Property/Adverse%20Events%20Identifiers/--SPID> a n4sch:Property;
  n4sch:Class.label "Adverse Events Identifiers";
  n4sch:label "--SPID" .

<neo4j://graph.schema#Property/Adverse%20Events%20Identifiers/--SEQ> a n4sch:Property;
  n4sch:label "--SEQ";
  n4sch:Class.label "Adverse Events Identifiers" .

<neo4j://graph.schema#Property/Subject/USUBJID> a n4sch:Property;
  n4sch:Class.label "Subject";
  n4sch:label "USUBJID" .

<neo4j://graph.schema#Class/Adverse%20Events%20End%20Reference%20Time%20Point> a n4sch:Class;
  n4sch:from_domains "AE";
  n4sch:label "Adverse Events End Reference Time Point";
  n4sch:CoreClass false;
  n4sch:SUBCLASS_OF <neo4j://graph.schema#Class/End%20Reference%20Time%20Point>;
  n4sch:HAS_PROPERTY <neo4j://graph.schema#Property/Adverse%20Events%20End%20Reference%20Time%20Point/--ENTPT> .

<neo4j://graph.schema#Class/Adverse%20Events%20Modified%20Reported%20Term> a n4sch:Class;
  n4sch:CoreClass false;
  n4sch:label "Adverse Events Modified Reported Term";
  n4sch:from_domains "AE";
  n4sch:HAS_PROPERTY <neo4j://graph.schema#Property/Adverse%20Events%20Modified%20Reported%20Term/--MODIFY>;
  n4sch:SUBCLASS_OF <neo4j://graph.schema#Class/Modified%20Reported%20Term> .

<neo4j://graph.schema#Class/Standard%20Toxicity%20Grade> a n4sch:Class;
  n4sch:from_domains "AE";
  n4sch:CoreClass false;
  n4sch:label "Standard Toxicity Grade";
  n4sch:HAS_PROPERTY <neo4j://graph.schema#Property/Standard%20Toxicity%20Grade/--TOXGR>;
  n4sch:SUBCLASS_OF <neo4j://graph.schema#Class/Toxicity%20Grade> .

<neo4j://graph.schema#Class/Adverse%20Events%20Relationship%20to%20Non-Study%20Treatment>
  a n4sch:Class;
  n4sch:from_domains "AE";
  n4sch:CoreClass false;
  n4sch:label "Adverse Events Relationship to Non-Study Treatment";
  n4sch:SUBCLASS_OF <neo4j://graph.schema#Class/Relationship%20to%20Non-Study%20Treatment>;
  n4sch:HAS_PROPERTY <neo4j://graph.schema#Property/Adverse%20Events%20Relationship%20to%20Non-Study%20Treatment/--RELNST> .

<neo4j://graph.schema#Class/Subject%20Identifier%20for%20the%20Study> a n4sch:Class;
  n4sch:label "Subject Identifier for the Study";
  n4sch:CoreClass false;
  n4sch:from_domains "AE,DM";
  n4sch:HAS_PROPERTY <neo4j://graph.schema#Property/Subject%20Identifier%20for%20the%20Study/SUBJID> .

<neo4j://graph.schema#Class/Pattern%20of%20Adverse%20Event> a n4sch:Class;
  n4sch:from_domains "AE";
  n4sch:label "Pattern of Adverse Event";
  n4sch:CoreClass false;
  n4sch:SUBCLASS_OF <neo4j://graph.schema#Class/Pattern%20of%20Event>;
  n4sch:HAS_PROPERTY <neo4j://graph.schema#Property/Pattern%20of%20Adverse%20Event/--PATT> .

<neo4j://graph.schema#Class/Adverse%20Events%20Lowest%20Level%20Term> a n4sch:Class;
  n4sch:label "Adverse Events Lowest Level Term";
  n4sch:CoreClass false;
  n4sch:from_domains "AE";
  n4sch:HAS_PROPERTY <neo4j://graph.schema#Property/Adverse%20Events%20Lowest%20Level%20Term/--LLT>;
  n4sch:SUBCLASS_OF <neo4j://graph.schema#Class/Lowest%20Level%20Term> .

<neo4j://graph.schema#Class/Adverse%20Events%20Occurred%20with%20Overdose> a n4sch:Class;
  n4sch:CoreClass false;
  n4sch:label "Adverse Events Occurred with Overdose";
  n4sch:from_domains "AE";
  n4sch:HAS_PROPERTY <neo4j://graph.schema#Property/Adverse%20Events%20Occurred%20with%20Overdose/--SOD>;
  n4sch:SUBCLASS_OF <neo4j://graph.schema#Class/Occurred%20with%20Overdose> .

<neo4j://graph.schema#Class/Study%20Day%20of%20Start%20of%20Adverse%20Event> a n4sch:Class;
  n4sch:label "Study Day of Start of Adverse Event";
  n4sch:from_domains "AE";
  n4sch:CoreClass false;
  n4sch:SUBCLASS_OF <neo4j://graph.schema#Class/Study%20Day%20of%20Start%20of%20Observation>;
  n4sch:HAS_PROPERTY <neo4j://graph.schema#Property/Study%20Day%20of%20Start%20of%20Adverse%20Event/--STDY> .

<neo4j://graph.schema#Class/Adverse%20Events%20End%20Relative%20to%20Reference%20Time%20Point>
  a n4sch:Class;
  n4sch:CoreClass false;
  n4sch:from_domains "AE";
  n4sch:label "Adverse Events End Relative to Reference Time Point";
  n4sch:HAS_PROPERTY <neo4j://graph.schema#Property/Adverse%20Events%20End%20Relative%20to%20Reference%20Time%20Point/--ENRTPT>;
  n4sch:SUBCLASS_OF <neo4j://graph.schema#Class/End%20Relative%20to%20Reference%20Time%20Point> .

<neo4j://graph.schema#Class/Adverse%20Events%20Lowest%20Level%20Term%20Code> a n4sch:Class;
  n4sch:CoreClass false;
  n4sch:label "Adverse Events Lowest Level Term Code";
  n4sch:from_domains "AE";
  n4sch:SUBCLASS_OF <neo4j://graph.schema#Class/Lowest%20Level%20Term%20Code>;
  n4sch:HAS_PROPERTY <neo4j://graph.schema#Property/Adverse%20Events%20Lowest%20Level%20Term%20Code/--LLTCD> .

<neo4j://graph.schema#Class/Adverse%20Events%20Congenital%20Anomaly%20or%20Birth%20Defect>
  a n4sch:Class;
  n4sch:from_domains "AE";
  n4sch:CoreClass false;
  n4sch:label "Adverse Events Congenital Anomaly or Birth Defect";
  n4sch:SUBCLASS_OF <neo4j://graph.schema#Class/Congenital%20Anomaly%20or%20Birth%20Defect>;
  n4sch:HAS_PROPERTY <neo4j://graph.schema#Property/Adverse%20Events%20Congenital%20Anomaly%20or%20Birth%20Defect/--SCONG> .

<neo4j://graph.schema#Class/Adverse%20Events%20Other%20Action%20Taken> a n4sch:Class;
  n4sch:CoreClass false;
  n4sch:label "Adverse Events Other Action Taken";
  n4sch:from_domains "AE";
  n4sch:SUBCLASS_OF <neo4j://graph.schema#Class/Other%20Action%20Taken>;
  n4sch:HAS_PROPERTY <neo4j://graph.schema#Property/Adverse%20Events%20Other%20Action%20Taken/--ACNOTH> .

<neo4j://graph.schema#Class/Adverse%20Events%20High%20Level%20Term> a n4sch:Class;
  n4sch:label "Adverse Events High Level Term";
  n4sch:from_domains "AE";
  n4sch:CoreClass false;
  n4sch:SUBCLASS_OF <neo4j://graph.schema#Class/High%20Level%20Term>;
  n4sch:HAS_PROPERTY <neo4j://graph.schema#Property/Adverse%20Events%20High%20Level%20Term/--HLT> .

<neo4j://graph.schema#Class/Adverse%20Events%20Primary%20System%20Organ%20Class%20Code>
  a n4sch:Class;
  n4sch:from_domains "AE";
  n4sch:CoreClass false;
  n4sch:label "Adverse Events Primary System Organ Class Code";
  n4sch:SUBCLASS_OF <neo4j://graph.schema#Class/Primary%20System%20Organ%20Class%20Code>;
  n4sch:HAS_PROPERTY <neo4j://graph.schema#Property/Adverse%20Events%20Primary%20System%20Organ%20Class%20Code/--SOCCD> .

<neo4j://graph.schema#Class/Adverse%20Events%20Action%20Taken%20with%20Study%20Treatment>
  a n4sch:Class;
  n4sch:from_domains "AE";
  n4sch:CoreClass false;
  n4sch:label "Adverse Events Action Taken with Study Treatment";
  n4sch:HAS_PROPERTY <neo4j://graph.schema#Property/Adverse%20Events%20Action%20Taken%20with%20Study%20Treatment/--ACN>;
  n4sch:SUBCLASS_OF <neo4j://graph.schema#Class/Action%20Taken%20with%20Study%20Treatment> .

<neo4j://graph.schema#Class/Duration%20of%20Adverse%20Event> a n4sch:Class;
  n4sch:label "Duration of Adverse Event";
  n4sch:CoreClass false;
  n4sch:from_domains "AE";
  n4sch:SUBCLASS_OF <neo4j://graph.schema#Class/Duration>;
  n4sch:HAS_PROPERTY <neo4j://graph.schema#Property/Duration%20of%20Adverse%20Event/--DUR> .

<neo4j://graph.schema#Class/Subcategory%20for%20Adverse%20Event> a n4sch:Class;
  n4sch:from_domains "AE";
  n4sch:CoreClass false;
  n4sch:label "Subcategory for Adverse Event";
  n4sch:HAS_PROPERTY <neo4j://graph.schema#Property/Subcategory%20for%20Adverse%20Event/--SCAT>;
  n4sch:SUBCLASS_OF <neo4j://graph.schema#Class/Subcategory> .

<neo4j://graph.schema#Class/Adverse%20Events%20Dictionary-Derived%20Term> a n4sch:Class;
  n4sch:from_domains "AE";
  n4sch:CoreClass false;
  n4sch:label "Adverse Events Dictionary-Derived Term";
  n4sch:HAS_PROPERTY <neo4j://graph.schema#Property/Adverse%20Events%20Dictionary-Derived%20Term/--DECOD>;
  n4sch:SUBCLASS_OF <neo4j://graph.schema#Class/Dictionary-Derived%20Term> .

<neo4j://graph.schema#Class/Adverse%20Events%20Results%20in%20Death> a n4sch:Class;
  n4sch:label "Adverse Events Results in Death";
  n4sch:CoreClass false;
  n4sch:from_domains "AE";
  n4sch:HAS_PROPERTY <neo4j://graph.schema#Property/Adverse%20Events%20Results%20in%20Death/--SDTH>;
  n4sch:SUBCLASS_OF <neo4j://graph.schema#Class/Results%20in%20Death> .

<neo4j://graph.schema#Class/End%20Date/Time%20of%20Adverse%20Event> a n4sch:Class;
  n4sch:from_domains "AE";
  n4sch:label "End Date/Time of Adverse Event";
  n4sch:CoreClass false;
  n4sch:HAS_PROPERTY <neo4j://graph.schema#Property/End%20Date/Time%20of%20Adverse%20Event/--ENDTC>;
  n4sch:SUBCLASS_OF <neo4j://graph.schema#Class/End%20Date/Time%20of%20Observation> .

<neo4j://graph.schema#Class/Category%20for%20Adverse%20Event> a n4sch:Class;
  n4sch:CoreClass false;
  n4sch:from_domains "AE";
  n4sch:label "Category for Adverse Event";
  n4sch:SUBCLASS_OF <neo4j://graph.schema#Class/Category>;
  n4sch:HAS_PROPERTY <neo4j://graph.schema#Property/Category%20for%20Adverse%20Event/--CAT> .

<neo4j://graph.schema#Class/Adverse%20Events%20Serious%20Event> a n4sch:Class;
  n4sch:CoreClass false;
  n4sch:from_domains "AE";
  n4sch:label "Adverse Events Serious Event";
  n4sch:HAS_PROPERTY <neo4j://graph.schema#Property/Adverse%20Events%20Serious%20Event/--SER>;
  n4sch:SUBCLASS_OF <neo4j://graph.schema#Class/Serious%20Event> .

<neo4j://graph.schema#Class/Adverse%20Events%20Causality> a n4sch:Class;
  n4sch:CoreClass false;
  n4sch:label "Adverse Events Causality";
  n4sch:from_domains "AE";
  n4sch:SUBCLASS_OF <neo4j://graph.schema#Class/Causality>;
  n4sch:HAS_PROPERTY <neo4j://graph.schema#Property/Adverse%20Events%20Causality/--REL> .

<neo4j://graph.schema#Class/Adverse%20Events%20Preferred%20Term%20Code> a n4sch:Class;
  n4sch:label "Adverse Events Preferred Term Code";
  n4sch:CoreClass false;
  n4sch:from_domains "AE";
  n4sch:SUBCLASS_OF <neo4j://graph.schema#Class/Preferred%20Term%20Code>;
  n4sch:HAS_PROPERTY <neo4j://graph.schema#Property/Adverse%20Events%20Preferred%20Term%20Code/--PTCD> .

<neo4j://graph.schema#Class/Adverse%20Events%20Location%20of%20Event> a n4sch:Class;
  n4sch:from_domains "AE";
  n4sch:CoreClass false;
  n4sch:label "Adverse Events Location of Event";
  n4sch:HAS_PROPERTY <neo4j://graph.schema#Property/Adverse%20Events%20Location%20of%20Event/--LOC>;
  n4sch:SUBCLASS_OF <neo4j://graph.schema#Class/Location%20of%20Event> .

<neo4j://graph.schema#Class/Adverse%20Events%20Is%20Life%20Threatening> a n4sch:Class;
  n4sch:label "Adverse Events Is Life Threatening";
  n4sch:CoreClass false;
  n4sch:from_domains "AE";
  n4sch:HAS_PROPERTY <neo4j://graph.schema#Property/Adverse%20Events%20Is%20Life%20Threatening/--SLIFE>;
  n4sch:SUBCLASS_OF <neo4j://graph.schema#Class/Is%20Life%20Threatening> .

<neo4j://graph.schema#Class/Study%20Day%20of%20End%20of%20Adverse%20Event> a n4sch:Class;
  n4sch:from_domains "AE";
  n4sch:label "Study Day of End of Adverse Event";
  n4sch:CoreClass false;
  n4sch:HAS_PROPERTY <neo4j://graph.schema#Property/Study%20Day%20of%20End%20of%20Adverse%20Event/--ENDY>;
  n4sch:SUBCLASS_OF <neo4j://graph.schema#Class/Study%20Day%20of%20End%20of%20Observation> .

<neo4j://graph.schema#Class/Reported%20Term%20for%20the%20Adverse%20Event> a n4sch:Class;
  n4sch:from_domains "AE";
  n4sch:CoreClass false;
  n4sch:label "Reported Term for the Adverse Event";
  n4sch:HAS_PROPERTY <neo4j://graph.schema#Property/Reported%20Term%20for%20the%20Adverse%20Event/--TERM>;
  n4sch:SUBCLASS_OF <neo4j://graph.schema#Class/Reported%20Term> .

<neo4j://graph.schema#Class/Severity/Intensity> a n4sch:Class;
  n4sch:CoreClass false;
  n4sch:from_domains "AE";
  n4sch:label "Severity/Intensity";
  n4sch:SUBCLASS_OF <neo4j://graph.schema#Class/Severity>;
  n4sch:HAS_PROPERTY <neo4j://graph.schema#Property/Severity/Intensity/--SEV> .

<neo4j://graph.schema#Class/Adverse%20Events%20Requires%20or%20Prolongs%20Hospitalization>
  a n4sch:Class;
  n4sch:label "Adverse Events Requires or Prolongs Hospitalization";
  n4sch:from_domains "AE";
  n4sch:CoreClass false;
  n4sch:SUBCLASS_OF <neo4j://graph.schema#Class/Requires%20or%20Prolongs%20Hospitalization>;
  n4sch:HAS_PROPERTY <neo4j://graph.schema#Property/Adverse%20Events%20Requires%20or%20Prolongs%20Hospitalization/--SHOSP> .

<neo4j://graph.schema#Class/Adverse%20Events%20Other%20Medically%20Important%20Serious%20Event>
  a n4sch:Class;
  n4sch:CoreClass false;
  n4sch:label "Adverse Events Other Medically Important Serious Event";
  n4sch:from_domains "AE";
  n4sch:HAS_PROPERTY <neo4j://graph.schema#Property/Adverse%20Events%20Other%20Medically%20Important%20Serious%20Event/--SMIE>;
  n4sch:SUBCLASS_OF <neo4j://graph.schema#Class/Other%20Medically%20Important%20Serious%20Event> .

<neo4j://graph.schema#Class/Outcome%20of%20Adverse%20Event> a n4sch:Class;
  n4sch:CoreClass false;
  n4sch:from_domains "AE";
  n4sch:label "Outcome of Adverse Event";
  n4sch:SUBCLASS_OF <neo4j://graph.schema#Class/Outcome%20of%20Event>;
  n4sch:HAS_PROPERTY <neo4j://graph.schema#Property/Outcome%20of%20Adverse%20Event/--OUT> .

<neo4j://graph.schema#Class/Adverse%20Events%20High%20Level%20Group%20Term> a n4sch:Class;
  n4sch:from_domains "AE";
  n4sch:label "Adverse Events High Level Group Term";
  n4sch:CoreClass false;
  n4sch:SUBCLASS_OF <neo4j://graph.schema#Class/High%20Level%20Group%20Term>;
  n4sch:HAS_PROPERTY <neo4j://graph.schema#Property/Adverse%20Events%20High%20Level%20Group%20Term/--HLGT> .

<neo4j://graph.schema#Class/Adverse%20Events%20High%20Level%20Group%20Term%20Code>
  a n4sch:Class;
  n4sch:from_domains "AE";
  n4sch:label "Adverse Events High Level Group Term Code";
  n4sch:CoreClass false;
  n4sch:SUBCLASS_OF <neo4j://graph.schema#Class/High%20Level%20Group%20Term%20Code>;
  n4sch:HAS_PROPERTY <neo4j://graph.schema#Property/Adverse%20Events%20High%20Level%20Group%20Term%20Code/--HLGTCD> .

<neo4j://graph.schema#Class/Adverse%20Events%20High%20Level%20Term%20Code> a n4sch:Class;
  n4sch:label "Adverse Events High Level Term Code";
  n4sch:from_domains "AE";
  n4sch:CoreClass false;
  n4sch:HAS_PROPERTY <neo4j://graph.schema#Property/Adverse%20Events%20High%20Level%20Term%20Code/--HLTCD>;
  n4sch:SUBCLASS_OF <neo4j://graph.schema#Class/High%20Level%20Term%20Code> .

<neo4j://graph.schema#Class/Adverse%20Events%20Body%20System%20or%20Organ%20Class%20Code>
  a n4sch:Class;
  n4sch:CoreClass false;
  n4sch:label "Adverse Events Body System or Organ Class Code";
  n4sch:from_domains "AE";
  n4sch:HAS_PROPERTY <neo4j://graph.schema#Property/Adverse%20Events%20Body%20System%20or%20Organ%20Class%20Code/--BDSYCD>;
  n4sch:SUBCLASS_OF <neo4j://graph.schema#Class/Body%20System%20or%20Organ%20Class%20Code> .

<neo4j://graph.schema#Class/Adverse%20Events%20End%20Relative%20to%20Reference%20Period>
  a n4sch:Class;
  n4sch:label "Adverse Events End Relative to Reference Period";
  n4sch:CoreClass false;
  n4sch:from_domains "AE";
  n4sch:HAS_PROPERTY <neo4j://graph.schema#Property/Adverse%20Events%20End%20Relative%20to%20Reference%20Period/--ENRF>;
  n4sch:SUBCLASS_OF <neo4j://graph.schema#Class/End%20Relative%20to%20Reference%20Period> .

<neo4j://graph.schema#Class/Adverse%20Events%20Persist%20or%20Signif%20Disability/Incapacity>
  a n4sch:Class;
  n4sch:CoreClass false;
  n4sch:from_domains "AE";
  n4sch:label "Adverse Events Persist or Signif Disability/Incapacity";
  n4sch:SUBCLASS_OF <neo4j://graph.schema#Class/Persist%20or%20Signif%20Disability/Incapacity>;
  n4sch:HAS_PROPERTY <neo4j://graph.schema#Property/Adverse%20Events%20Persist%20or%20Signif%20Disability/Incapacity/--SDISAB> .

<neo4j://graph.schema#Class/Start%20Date/Time%20of%20Adverse%20Event> a n4sch:Class;
  n4sch:CoreClass false;
  n4sch:label "Start Date/Time of Adverse Event";
  n4sch:from_domains "AE";
  n4sch:SUBCLASS_OF <neo4j://graph.schema#Class/Start%20Date/Time%20of%20Observation>;
  n4sch:HAS_PROPERTY <neo4j://graph.schema#Property/Start%20Date/Time%20of%20Adverse%20Event/--STDTC> .

<neo4j://graph.schema#Class/Adverse%20Events%20Epoch> a n4sch:Class;
  n4sch:label "Adverse Events Epoch";
  n4sch:from_domains "AE";
  n4sch:CoreClass false;
  n4sch:SUBCLASS_OF <neo4j://graph.schema#Class/Epoch>;
  n4sch:HAS_PROPERTY <neo4j://graph.schema#Property/Adverse%20Events%20Epoch/EPOCH> .

<neo4j://graph.schema#Class/Adverse%20Events%20Concomitant%20or%20Additional%20Trtmnt%20Given>
  a n4sch:Class;
  n4sch:from_domains "AE";
  n4sch:CoreClass false;
  n4sch:label "Adverse Events Concomitant or Additional Trtmnt Given";
  n4sch:SUBCLASS_OF <neo4j://graph.schema#Class/Concomitant%20or%20Additional%20Trtmnt%20Given>;
  n4sch:HAS_PROPERTY <neo4j://graph.schema#Property/Adverse%20Events%20Concomitant%20or%20Additional%20Trtmnt%20Given/--CONTRT> .

<neo4j://graph.schema#Class/Pre-Specified%20Adverse%20Event> a n4sch:Class;
  n4sch:CoreClass false;
  n4sch:from_domains "AE";
  n4sch:label "Pre-Specified Adverse Event";
  n4sch:SUBCLASS_OF <neo4j://graph.schema#Class/Pre-specified>;
  n4sch:HAS_PROPERTY <neo4j://graph.schema#Property/Pre-Specified%20Adverse%20Event/--PRESP> .

<neo4j://graph.schema#Class/Adverse%20Events%20Involves%20Cancer> a n4sch:Class;
  n4sch:label "Adverse Events Involves Cancer";
  n4sch:from_domains "AE";
  n4sch:CoreClass false;
  n4sch:HAS_PROPERTY <neo4j://graph.schema#Property/Adverse%20Events%20Involves%20Cancer/--SCAN>;
  n4sch:SUBCLASS_OF <neo4j://graph.schema#Class/Involves%20Cancer> .

<neo4j://graph.schema#Class/Adverse%20Events%20Body%20System%20or%20Organ%20Class>
  a n4sch:Class;
  n4sch:from_domains "AE";
  n4sch:CoreClass false;
  n4sch:label "Adverse Events Body System or Organ Class";
  n4sch:HAS_PROPERTY <neo4j://graph.schema#Property/Adverse%20Events%20Body%20System%20or%20Organ%20Class/--BODSYS>;
  n4sch:SUBCLASS_OF <neo4j://graph.schema#Class/Body%20System%20or%20Organ%20Class> .

<neo4j://graph.schema#Class/Adverse%20Events%20Primary%20System%20Organ%20Class> a
    n4sch:Class;
  n4sch:from_domains "AE";
  n4sch:CoreClass false;
  n4sch:label "Adverse Events Primary System Organ Class";
  n4sch:HAS_PROPERTY <neo4j://graph.schema#Property/Adverse%20Events%20Primary%20System%20Organ%20Class/--SOC>;
  n4sch:SUBCLASS_OF <neo4j://graph.schema#Class/Primary%20System%20Organ%20Class> .

<neo4j://graph.schema#Property/Subject%20Identifier%20for%20the%20Study/SUBJID> a
    n4sch:Property;
  n4sch:Class.label "Subject Identifier for the Study";
  n4sch:label "SUBJID" .

<neo4j://graph.schema#Property/Reported%20Term%20for%20the%20Adverse%20Event/--TERM>
  a n4sch:Property;
  n4sch:label "--TERM";
  n4sch:Class.label "Reported Term for the Adverse Event" .

<neo4j://graph.schema#Class/Reported%20Term> a n4sch:Class;
  n4sch:CoreClass false;
  n4sch:from_domains "AE";
  n4sch:label "Reported Term" .

<neo4j://graph.schema#Property/Adverse%20Events%20Modified%20Reported%20Term/--MODIFY>
  a n4sch:Property;
  n4sch:Class.label "Adverse Events Modified Reported Term";
  n4sch:label "--MODIFY" .

<neo4j://graph.schema#Class/Modified%20Reported%20Term> a n4sch:Class;
  n4sch:CoreClass false;
  n4sch:from_domains "AE";
  n4sch:label "Modified Reported Term" .

<neo4j://graph.schema#Property/Adverse%20Events%20Lowest%20Level%20Term/--LLT> a n4sch:Property;
  n4sch:Class.label "Adverse Events Lowest Level Term";
  n4sch:label "--LLT" .

<neo4j://graph.schema#Class/Lowest%20Level%20Term> a n4sch:Class;
  n4sch:CoreClass false;
  n4sch:from_domains "AE";
  n4sch:label "Lowest Level Term" .

<neo4j://graph.schema#Class/Lowest%20Level%20Term%20Code> a n4sch:Class;
  n4sch:label "Lowest Level Term Code";
  n4sch:from_domains "AE";
  n4sch:CoreClass false .

<neo4j://graph.schema#Property/Adverse%20Events%20Lowest%20Level%20Term%20Code/--LLTCD>
  a n4sch:Property;
  n4sch:label "--LLTCD";
  n4sch:Class.label "Adverse Events Lowest Level Term Code" .

<neo4j://graph.schema#Property/Adverse%20Events%20Dictionary-Derived%20Term/--DECOD>
  a n4sch:Property;
  n4sch:Class.label "Adverse Events Dictionary-Derived Term";
  n4sch:label "--DECOD" .

<neo4j://graph.schema#Class/Dictionary-Derived%20Term> a n4sch:Class;
  n4sch:label "Dictionary-Derived Term";
  n4sch:from_domains "AE";
  n4sch:CoreClass false .

<neo4j://graph.schema#Class/Preferred%20Term%20Code> a n4sch:Class;
  n4sch:from_domains "AE";
  n4sch:CoreClass false;
  n4sch:label "Preferred Term Code" .

<neo4j://graph.schema#Property/Adverse%20Events%20Preferred%20Term%20Code/--PTCD>
  a n4sch:Property;
  n4sch:Class.label "Adverse Events Preferred Term Code";
  n4sch:label "--PTCD" .

<neo4j://graph.schema#Class/High%20Level%20Term> a n4sch:Class;
  n4sch:CoreClass false;
  n4sch:from_domains "AE";
  n4sch:label "High Level Term" .

<neo4j://graph.schema#Property/Adverse%20Events%20High%20Level%20Term/--HLT> a n4sch:Property;
  n4sch:Class.label "Adverse Events High Level Term";
  n4sch:label "--HLT" .

<neo4j://graph.schema#Property/Adverse%20Events%20High%20Level%20Term%20Code/--HLTCD>
  a n4sch:Property;
  n4sch:label "--HLTCD";
  n4sch:Class.label "Adverse Events High Level Term Code" .

<neo4j://graph.schema#Class/High%20Level%20Term%20Code> a n4sch:Class;
  n4sch:CoreClass false;
  n4sch:from_domains "AE";
  n4sch:label "High Level Term Code" .

<neo4j://graph.schema#Class/High%20Level%20Group%20Term> a n4sch:Class;
  n4sch:CoreClass false;
  n4sch:label "High Level Group Term";
  n4sch:from_domains "AE" .

<neo4j://graph.schema#Property/Adverse%20Events%20High%20Level%20Group%20Term/--HLGT>
  a n4sch:Property;
  n4sch:label "--HLGT";
  n4sch:Class.label "Adverse Events High Level Group Term" .

<neo4j://graph.schema#Class/High%20Level%20Group%20Term%20Code> a n4sch:Class;
  n4sch:label "High Level Group Term Code";
  n4sch:CoreClass false;
  n4sch:from_domains "AE" .

<neo4j://graph.schema#Property/Adverse%20Events%20High%20Level%20Group%20Term%20Code/--HLGTCD>
  a n4sch:Property;
  n4sch:label "--HLGTCD";
  n4sch:Class.label "Adverse Events High Level Group Term Code" .

<neo4j://graph.schema#Class/Category> a n4sch:Class;
  n4sch:from_domains "AE";
  n4sch:CoreClass false;
  n4sch:label "Category" .

<neo4j://graph.schema#Property/Category%20for%20Adverse%20Event/--CAT> a n4sch:Property;
  n4sch:label "--CAT";
  n4sch:Class.label "Category for Adverse Event" .

<neo4j://graph.schema#Property/Subcategory%20for%20Adverse%20Event/--SCAT> a n4sch:Property;
  n4sch:Class.label "Subcategory for Adverse Event";
  n4sch:label "--SCAT" .

<neo4j://graph.schema#Class/Subcategory> a n4sch:Class;
  n4sch:label "Subcategory";
  n4sch:from_domains "AE";
  n4sch:CoreClass false .

<neo4j://graph.schema#Class/Pre-specified> a n4sch:Class;
  n4sch:from_domains "AE";
  n4sch:CoreClass false;
  n4sch:label "Pre-specified" .

<neo4j://graph.schema#Property/Pre-Specified%20Adverse%20Event/--PRESP> a n4sch:Property;
  n4sch:Class.label "Pre-Specified Adverse Event";
  n4sch:label "--PRESP" .

<neo4j://graph.schema#Property/Adverse%20Events%20Body%20System%20or%20Organ%20Class/--BODSYS>
  a n4sch:Property;
  n4sch:label "--BODSYS";
  n4sch:Class.label "Adverse Events Body System or Organ Class" .

<neo4j://graph.schema#Class/Body%20System%20or%20Organ%20Class> a n4sch:Class;
  n4sch:label "Body System or Organ Class";
  n4sch:CoreClass false;
  n4sch:from_domains "AE" .

<neo4j://graph.schema#Property/Adverse%20Events%20Body%20System%20or%20Organ%20Class%20Code/--BDSYCD>
  a n4sch:Property;
  n4sch:label "--BDSYCD";
  n4sch:Class.label "Adverse Events Body System or Organ Class Code" .

<neo4j://graph.schema#Class/Body%20System%20or%20Organ%20Class%20Code> a n4sch:Class;
  n4sch:CoreClass false;
  n4sch:label "Body System or Organ Class Code";
  n4sch:from_domains "AE" .

<neo4j://graph.schema#Property/Adverse%20Events%20Primary%20System%20Organ%20Class/--SOC>
  a n4sch:Property;
  n4sch:Class.label "Adverse Events Primary System Organ Class";
  n4sch:label "--SOC" .

<neo4j://graph.schema#Class/Primary%20System%20Organ%20Class> a n4sch:Class;
  n4sch:label "Primary System Organ Class";
  n4sch:from_domains "AE";
  n4sch:CoreClass false .

<neo4j://graph.schema#Class/Primary%20System%20Organ%20Class%20Code> a n4sch:Class;
  n4sch:CoreClass false;
  n4sch:label "Primary System Organ Class Code";
  n4sch:from_domains "AE" .

<neo4j://graph.schema#Property/Adverse%20Events%20Primary%20System%20Organ%20Class%20Code/--SOCCD>
  a n4sch:Property;
  n4sch:label "--SOCCD";
  n4sch:Class.label "Adverse Events Primary System Organ Class Code" .

<neo4j://graph.schema#Property/Adverse%20Events%20Location%20of%20Event/--LOC> a n4sch:Property;
  n4sch:label "--LOC";
  n4sch:Class.label "Adverse Events Location of Event" .

<neo4j://graph.schema#Class/Location%20of%20Event> a n4sch:Class;
  n4sch:label "Location of Event";
  n4sch:from_domains "AE";
  n4sch:CoreClass false .

<neo4j://graph.schema#Class/Severity> a n4sch:Class;
  n4sch:label "Severity";
  n4sch:from_domains "AE";
  n4sch:CoreClass false .

<neo4j://graph.schema#Property/Severity/Intensity/--SEV> a n4sch:Property;
  n4sch:label "--SEV";
  n4sch:Class.label "Severity/Intensity" .

<neo4j://graph.schema#Property/Adverse%20Events%20Serious%20Event/--SER> a n4sch:Property;
  n4sch:Class.label "Adverse Events Serious Event";
  n4sch:label "--SER" .

<neo4j://graph.schema#Class/Serious%20Event> a n4sch:Class;
  n4sch:CoreClass false;
  n4sch:from_domains "AE";
  n4sch:label "Serious Event" .

<neo4j://graph.schema#Property/Adverse%20Events%20Action%20Taken%20with%20Study%20Treatment/--ACN>
  a n4sch:Property;
  n4sch:Class.label "Adverse Events Action Taken with Study Treatment";
  n4sch:label "--ACN" .

<neo4j://graph.schema#Class/Action%20Taken%20with%20Study%20Treatment> a n4sch:Class;
  n4sch:label "Action Taken with Study Treatment";
  n4sch:from_domains "AE";
  n4sch:CoreClass false .

<neo4j://graph.schema#Class/Other%20Action%20Taken> a n4sch:Class;
  n4sch:label "Other Action Taken";
  n4sch:from_domains "AE";
  n4sch:CoreClass false .

<neo4j://graph.schema#Property/Adverse%20Events%20Other%20Action%20Taken/--ACNOTH>
  a n4sch:Property;
  n4sch:Class.label "Adverse Events Other Action Taken";
  n4sch:label "--ACNOTH" .

<neo4j://graph.schema#Class/Causality> a n4sch:Class;
  n4sch:from_domains "AE";
  n4sch:label "Causality";
  n4sch:CoreClass false .

<neo4j://graph.schema#Property/Adverse%20Events%20Causality/--REL> a n4sch:Property;
  n4sch:Class.label "Adverse Events Causality";
  n4sch:label "--REL" .

<neo4j://graph.schema#Class/Relationship%20to%20Non-Study%20Treatment> a n4sch:Class;
  n4sch:from_domains "AE";
  n4sch:CoreClass false;
  n4sch:label "Relationship to Non-Study Treatment" .

<neo4j://graph.schema#Property/Adverse%20Events%20Relationship%20to%20Non-Study%20Treatment/--RELNST>
  a n4sch:Property;
  n4sch:Class.label "Adverse Events Relationship to Non-Study Treatment";
  n4sch:label "--RELNST" .

<neo4j://graph.schema#Class/Pattern%20of%20Event> a n4sch:Class;
  n4sch:CoreClass false;
  n4sch:from_domains "AE";
  n4sch:label "Pattern of Event" .

<neo4j://graph.schema#Property/Pattern%20of%20Adverse%20Event/--PATT> a n4sch:Property;
  n4sch:label "--PATT";
  n4sch:Class.label "Pattern of Adverse Event" .

<neo4j://graph.schema#Class/Outcome%20of%20Event> a n4sch:Class;
  n4sch:from_domains "AE";
  n4sch:CoreClass false;
  n4sch:label "Outcome of Event" .

<neo4j://graph.schema#Property/Outcome%20of%20Adverse%20Event/--OUT> a n4sch:Property;
  n4sch:label "--OUT";
  n4sch:Class.label "Outcome of Adverse Event" .

<neo4j://graph.schema#Property/Adverse%20Events%20Involves%20Cancer/--SCAN> a n4sch:Property;
  n4sch:Class.label "Adverse Events Involves Cancer";
  n4sch:label "--SCAN" .

<neo4j://graph.schema#Class/Involves%20Cancer> a n4sch:Class;
  n4sch:from_domains "AE";
  n4sch:CoreClass false;
  n4sch:label "Involves Cancer" .

<neo4j://graph.schema#Class/Congenital%20Anomaly%20or%20Birth%20Defect> a n4sch:Class;
  n4sch:CoreClass false;
  n4sch:from_domains "AE";
  n4sch:label "Congenital Anomaly or Birth Defect" .

<neo4j://graph.schema#Property/Adverse%20Events%20Congenital%20Anomaly%20or%20Birth%20Defect/--SCONG>
  a n4sch:Property;
  n4sch:Class.label "Adverse Events Congenital Anomaly or Birth Defect";
  n4sch:label "--SCONG" .

<neo4j://graph.schema#Class/Persist%20or%20Signif%20Disability/Incapacity> a n4sch:Class;
  n4sch:CoreClass false;
  n4sch:label "Persist or Signif Disability/Incapacity";
  n4sch:from_domains "AE" .

<neo4j://graph.schema#Property/Adverse%20Events%20Persist%20or%20Signif%20Disability/Incapacity/--SDISAB>
  a n4sch:Property;
  n4sch:label "--SDISAB";
  n4sch:Class.label "Adverse Events Persist or Signif Disability/Incapacity" .

<neo4j://graph.schema#Property/Adverse%20Events%20Results%20in%20Death/--SDTH> a n4sch:Property;
  n4sch:Class.label "Adverse Events Results in Death";
  n4sch:label "--SDTH" .

<neo4j://graph.schema#Class/Results%20in%20Death> a n4sch:Class;
  n4sch:from_domains "AE";
  n4sch:label "Results in Death";
  n4sch:CoreClass false .

<neo4j://graph.schema#Class/Requires%20or%20Prolongs%20Hospitalization> a n4sch:Class;
  n4sch:CoreClass false;
  n4sch:label "Requires or Prolongs Hospitalization";
  n4sch:from_domains "AE" .

<neo4j://graph.schema#Property/Adverse%20Events%20Requires%20or%20Prolongs%20Hospitalization/--SHOSP>
  a n4sch:Property;
  n4sch:Class.label "Adverse Events Requires or Prolongs Hospitalization";
  n4sch:label "--SHOSP" .

<neo4j://graph.schema#Property/Adverse%20Events%20Is%20Life%20Threatening/--SLIFE>
  a n4sch:Property;
  n4sch:Class.label "Adverse Events Is Life Threatening";
  n4sch:label "--SLIFE" .

<neo4j://graph.schema#Class/Is%20Life%20Threatening> a n4sch:Class;
  n4sch:from_domains "AE";
  n4sch:CoreClass false;
  n4sch:label "Is Life Threatening" .

<neo4j://graph.schema#Property/Adverse%20Events%20Occurred%20with%20Overdose/--SOD>
  a n4sch:Property;
  n4sch:Class.label "Adverse Events Occurred with Overdose";
  n4sch:label "--SOD" .

<neo4j://graph.schema#Class/Occurred%20with%20Overdose> a n4sch:Class;
  n4sch:label "Occurred with Overdose";
  n4sch:from_domains "AE";
  n4sch:CoreClass false .

<neo4j://graph.schema#Property/Adverse%20Events%20Other%20Medically%20Important%20Serious%20Event/--SMIE>
  a n4sch:Property;
  n4sch:label "--SMIE";
  n4sch:Class.label "Adverse Events Other Medically Important Serious Event" .

<neo4j://graph.schema#Class/Other%20Medically%20Important%20Serious%20Event> a n4sch:Class;
  n4sch:from_domains "AE";
  n4sch:CoreClass false;
  n4sch:label "Other Medically Important Serious Event" .

<neo4j://graph.schema#Class/Concomitant%20or%20Additional%20Trtmnt%20Given> a n4sch:Class;
  n4sch:from_domains "AE";
  n4sch:label "Concomitant or Additional Trtmnt Given";
  n4sch:CoreClass false .

<neo4j://graph.schema#Property/Adverse%20Events%20Concomitant%20or%20Additional%20Trtmnt%20Given/--CONTRT>
  a n4sch:Property;
  n4sch:label "--CONTRT";
  n4sch:Class.label "Adverse Events Concomitant or Additional Trtmnt Given" .

<neo4j://graph.schema#Property/Standard%20Toxicity%20Grade/--TOXGR> a n4sch:Property;
  n4sch:Class.label "Standard Toxicity Grade";
  n4sch:label "--TOXGR" .

<neo4j://graph.schema#Class/Toxicity%20Grade> a n4sch:Class;
  n4sch:from_domains "AE";
  n4sch:label "Toxicity Grade";
  n4sch:CoreClass false .

<neo4j://graph.schema#Class/Epoch> a n4sch:Class;
  n4sch:from_domains "AE";
  n4sch:label "Epoch";
  n4sch:CoreClass false .

<neo4j://graph.schema#Property/Adverse%20Events%20Epoch/EPOCH> a n4sch:Property;
  n4sch:Class.label "Adverse Events Epoch";
  n4sch:label "EPOCH" .

<neo4j://graph.schema#Class/Start%20Date/Time%20of%20Observation> a n4sch:Class;
  n4sch:from_domains "AE";
  n4sch:label "Start Date/Time of Observation";
  n4sch:CoreClass false .

<neo4j://graph.schema#Property/Start%20Date/Time%20of%20Adverse%20Event/--STDTC> a
    n4sch:Property;
  n4sch:label "--STDTC";
  n4sch:Class.label "Start Date/Time of Adverse Event" .

<neo4j://graph.schema#Property/End%20Date/Time%20of%20Adverse%20Event/--ENDTC> a n4sch:Property;
  n4sch:Class.label "End Date/Time of Adverse Event";
  n4sch:label "--ENDTC" .

<neo4j://graph.schema#Class/End%20Date/Time%20of%20Observation> a n4sch:Class;
  n4sch:CoreClass false;
  n4sch:from_domains "AE";
  n4sch:label "End Date/Time of Observation" .

<neo4j://graph.schema#Class/Study%20Day%20of%20Start%20of%20Observation> a n4sch:Class;
  n4sch:label "Study Day of Start of Observation";
  n4sch:from_domains "AE";
  n4sch:CoreClass false .

<neo4j://graph.schema#Property/Study%20Day%20of%20Start%20of%20Adverse%20Event/--STDY>
  a n4sch:Property;
  n4sch:Class.label "Study Day of Start of Adverse Event";
  n4sch:label "--STDY" .

<neo4j://graph.schema#Property/Study%20Day%20of%20End%20of%20Adverse%20Event/--ENDY>
  a n4sch:Property;
  n4sch:Class.label "Study Day of End of Adverse Event";
  n4sch:label "--ENDY" .

<neo4j://graph.schema#Class/Study%20Day%20of%20End%20of%20Observation> a n4sch:Class;
  n4sch:CoreClass false;
  n4sch:from_domains "AE";
  n4sch:label "Study Day of End of Observation" .

<neo4j://graph.schema#Class/Duration> a n4sch:Class;
  n4sch:CoreClass false;
  n4sch:label "Duration";
  n4sch:from_domains "AE" .

<neo4j://graph.schema#Property/Duration%20of%20Adverse%20Event/--DUR> a n4sch:Property;
  n4sch:label "--DUR";
  n4sch:Class.label "Duration of Adverse Event" .

<neo4j://graph.schema#Property/Adverse%20Events%20End%20Relative%20to%20Reference%20Period/--ENRF>
  a n4sch:Property;
  n4sch:label "--ENRF";
  n4sch:Class.label "Adverse Events End Relative to Reference Period" .

<neo4j://graph.schema#Class/End%20Relative%20to%20Reference%20Period> a n4sch:Class;
  n4sch:CoreClass false;
  n4sch:label "End Relative to Reference Period";
  n4sch:from_domains "AE" .

<neo4j://graph.schema#Property/Adverse%20Events%20End%20Relative%20to%20Reference%20Time%20Point/--ENRTPT>
  a n4sch:Property;
  n4sch:label "--ENRTPT";
  n4sch:Class.label "Adverse Events End Relative to Reference Time Point" .

<neo4j://graph.schema#Class/End%20Relative%20to%20Reference%20Time%20Point> a n4sch:Class;
  n4sch:CoreClass false;
  n4sch:label "End Relative to Reference Time Point";
  n4sch:from_domains "AE" .

<neo4j://graph.schema#Class/End%20Reference%20Time%20Point> a n4sch:Class;
  n4sch:CoreClass false;
  n4sch:label "End Reference Time Point";
  n4sch:from_domains "AE" .

<neo4j://graph.schema#Property/Adverse%20Events%20End%20Reference%20Time%20Point/--ENTPT>
  a n4sch:Property;
  n4sch:Class.label "Adverse Events End Reference Time Point";
  n4sch:label "--ENTPT" .

<neo4j://graph.schema#Class/Demographics%20Identifiers> a n4sch:Class;
  n4sch:label "Demographics Identifiers";
  n4sch:from_domains "DM";
  n4sch:CoreClass false;
  n4sch:create true;
  n4sch:HAS_PROPERTY <neo4j://graph.schema#Property/Demographics%20Identifiers/DOMAIN> .

<neo4j://graph.schema#Property/Demographics%20Identifiers/DOMAIN> a n4sch:Property;
  n4sch:label "DOMAIN";
  n4sch:Class.label "Demographics Identifiers" .

<neo4j://graph.schema#Class/Subject%20Reference%20Start%20Date/Time> a n4sch:Class;
  n4sch:CoreClass false;
  n4sch:label "Subject Reference Start Date/Time";
  n4sch:from_domains "DM";
  n4sch:SUBCLASS_OF <neo4j://graph.schema#Class/Date/Time>;
  n4sch:HAS_PROPERTY <neo4j://graph.schema#Property/Subject%20Reference%20Start%20Date/Time/RFSTDTC> .

<neo4j://graph.schema#Class/Date/Time> a n4sch:Class;
  n4sch:label "Date/Time";
  n4sch:from_domains "AE,DM";
  n4sch:CoreClass false .

<neo4j://graph.schema#Property/Subject%20Reference%20Start%20Date/Time/RFSTDTC> a
    n4sch:Property;
  n4sch:Class.label "Subject Reference Start Date/Time";
  n4sch:label "RFSTDTC" .

<neo4j://graph.schema#Class/Subject%20Reference%20End%20Date/Time> a n4sch:Class;
  n4sch:label "Subject Reference End Date/Time";
  n4sch:from_domains "DM";
  n4sch:CoreClass false;
  n4sch:SUBCLASS_OF <neo4j://graph.schema#Class/Date/Time>;
  n4sch:HAS_PROPERTY <neo4j://graph.schema#Property/Subject%20Reference%20End%20Date/Time/RFENDTC> .

<neo4j://graph.schema#Property/Subject%20Reference%20End%20Date/Time/RFENDTC> a n4sch:Property;
  n4sch:label "RFENDTC";
  n4sch:Class.label "Subject Reference End Date/Time" .

<neo4j://graph.schema#Class/Date/Time%20of%20First%20Study%20Treatment> a n4sch:Class;
  n4sch:CoreClass false;
  n4sch:from_domains "DM";
  n4sch:label "Date/Time of First Study Treatment";
  n4sch:HAS_PROPERTY <neo4j://graph.schema#Property/Date/Time%20of%20First%20Study%20Treatment/RFXSTDTC>;
  n4sch:SUBCLASS_OF <neo4j://graph.schema#Class/Date/Time> .

<neo4j://graph.schema#Property/Date/Time%20of%20First%20Study%20Treatment/RFXSTDTC>
  a n4sch:Property;
  n4sch:label "RFXSTDTC";
  n4sch:Class.label "Date/Time of First Study Treatment" .

<neo4j://graph.schema#Class/Date/Time%20of%20Last%20Study%20Treatment> a n4sch:Class;
  n4sch:from_domains "DM";
  n4sch:label "Date/Time of Last Study Treatment";
  n4sch:CoreClass false;
  n4sch:SUBCLASS_OF <neo4j://graph.schema#Class/Date/Time>;
  n4sch:HAS_PROPERTY <neo4j://graph.schema#Property/Date/Time%20of%20Last%20Study%20Treatment/RFXENDTC> .

<neo4j://graph.schema#Property/Date/Time%20of%20Last%20Study%20Treatment/RFXENDTC>
  a n4sch:Property;
  n4sch:Class.label "Date/Time of Last Study Treatment";
  n4sch:label "RFXENDTC" .

<neo4j://graph.schema#Class/Date/Time%20of%20Informed%20Consent> a n4sch:Class;
  n4sch:label "Date/Time of Informed Consent";
  n4sch:CoreClass false;
  n4sch:from_domains "DM";
  n4sch:HAS_PROPERTY <neo4j://graph.schema#Property/Date/Time%20of%20Informed%20Consent/RFICDTC>;
  n4sch:SUBCLASS_OF <neo4j://graph.schema#Class/Date/Time> .

<neo4j://graph.schema#Property/Date/Time%20of%20Informed%20Consent/RFICDTC> a n4sch:Property;
  n4sch:label "RFICDTC";
  n4sch:Class.label "Date/Time of Informed Consent" .

<neo4j://graph.schema#Class/Date/Time%20of%20End%20of%20Participation> a n4sch:Class;
  n4sch:from_domains "DM";
  n4sch:label "Date/Time of End of Participation";
  n4sch:CoreClass false;
  n4sch:SUBCLASS_OF <neo4j://graph.schema#Class/Date/Time>;
  n4sch:HAS_PROPERTY <neo4j://graph.schema#Property/Date/Time%20of%20End%20of%20Participation/RFPENDTC> .

<neo4j://graph.schema#Property/Date/Time%20of%20End%20of%20Participation/RFPENDTC>
  a n4sch:Property;
  n4sch:label "RFPENDTC";
  n4sch:Class.label "Date/Time of End of Participation" .

<neo4j://graph.schema#Class/Date/Time%20of%20Death> a n4sch:Class;
  n4sch:label "Date/Time of Death";
  n4sch:from_domains "DM";
  n4sch:CoreClass false;
  n4sch:HAS_PROPERTY <neo4j://graph.schema#Property/Date/Time%20of%20Death/DTHDTC>;
  n4sch:SUBCLASS_OF <neo4j://graph.schema#Class/Date/Time> .

<neo4j://graph.schema#Property/Date/Time%20of%20Death/DTHDTC> a n4sch:Property;
  n4sch:Class.label "Date/Time of Death";
  n4sch:label "DTHDTC" .

<neo4j://graph.schema#Class/Subject%20Death%20Flag> a n4sch:Class;
  n4sch:CoreClass false;
  n4sch:label "Subject Death Flag";
  n4sch:from_domains "DM";
  n4sch:HAS_PROPERTY <neo4j://graph.schema#Property/Subject%20Death%20Flag/DTHFL> .

<neo4j://graph.schema#Property/Subject%20Death%20Flag/DTHFL> a n4sch:Property;
  n4sch:label "DTHFL";
  n4sch:Class.label "Subject Death Flag" .

<neo4j://graph.schema#Class/Study%20Site%20Identifier> a n4sch:Class;
  n4sch:label "Study Site Identifier";
  n4sch:from_domains "DM";
  n4sch:CoreClass false;
  n4sch:HAS_PROPERTY <neo4j://graph.schema#Property/Study%20Site%20Identifier/SITEID> .

<neo4j://graph.schema#Property/Study%20Site%20Identifier/SITEID> a n4sch:Property;
  n4sch:label "SITEID";
  n4sch:Class.label "Study Site Identifier" .

<neo4j://graph.schema#Class/Investigator%20Identifier> a n4sch:Class;
  n4sch:label "Investigator Identifier";
  n4sch:from_domains "DM";
  n4sch:CoreClass false;
  n4sch:HAS_PROPERTY <neo4j://graph.schema#Property/Investigator%20Identifier/INVID> .

<neo4j://graph.schema#Property/Investigator%20Identifier/INVID> a n4sch:Property;
  n4sch:Class.label "Investigator Identifier";
  n4sch:label "INVID" .

<neo4j://graph.schema#Class/Investigator%20Name> a n4sch:Class;
  n4sch:CoreClass false;
  n4sch:label "Investigator Name";
  n4sch:from_domains "DM";
  n4sch:HAS_PROPERTY <neo4j://graph.schema#Property/Investigator%20Name/INVNAM> .

<neo4j://graph.schema#Property/Investigator%20Name/INVNAM> a n4sch:Property;
  n4sch:Class.label "Investigator Name";
  n4sch:label "INVNAM" .

<neo4j://graph.schema#Class/Date/Time%20of%20Birth> a n4sch:Class;
  n4sch:from_domains "DM";
  n4sch:label "Date/Time of Birth";
  n4sch:CoreClass false;
  n4sch:SUBCLASS_OF <neo4j://graph.schema#Class/Date/Time>;
  n4sch:HAS_PROPERTY <neo4j://graph.schema#Property/Date/Time%20of%20Birth/BRTHDTC> .

<neo4j://graph.schema#Property/Date/Time%20of%20Birth/BRTHDTC> a n4sch:Property;
  n4sch:Class.label "Date/Time of Birth";
  n4sch:label "BRTHDTC" .

<neo4j://graph.schema#Class/Age> a n4sch:Class;
  n4sch:from_domains "DM";
  n4sch:CoreClass false;
  n4sch:label "Age";
  n4sch:HAS_PROPERTY <neo4j://graph.schema#Property/Age/AGE> .

<neo4j://graph.schema#Property/Age/AGE> a n4sch:Property;
  n4sch:label "AGE";
  n4sch:Class.label "Age" .

<neo4j://graph.schema#Class/Age%20Units> a n4sch:Class;
  n4sch:label "Age Units";
  n4sch:from_domains "DM";
  n4sch:CoreClass false;
  n4sch:HAS_PROPERTY <neo4j://graph.schema#Property/Age%20Units/AGEU> .

<neo4j://graph.schema#Property/Age%20Units/AGEU> a n4sch:Property;
  n4sch:label "AGEU";
  n4sch:Class.label "Age Units" .

<neo4j://graph.schema#Class/Sex> a n4sch:Class;
  n4sch:from_domains "DM";
  n4sch:CoreClass false;
  n4sch:label "Sex";
  n4sch:HAS_PROPERTY <neo4j://graph.schema#Property/Sex/SEX> .

<neo4j://graph.schema#Property/Sex/SEX> a n4sch:Property;
  n4sch:label "SEX";
  n4sch:Class.label "Sex" .

<neo4j://graph.schema#Class/Race> a n4sch:Class;
  n4sch:from_domains "DM";
  n4sch:CoreClass false;
  n4sch:label "Race";
  n4sch:HAS_PROPERTY <neo4j://graph.schema#Property/Race/RACE> .

<neo4j://graph.schema#Property/Race/RACE> a n4sch:Property;
  n4sch:Class.label "Race";
  n4sch:label "RACE" .

<neo4j://graph.schema#Class/Ethnicity> a n4sch:Class;
  n4sch:from_domains "DM";
  n4sch:CoreClass false;
  n4sch:label "Ethnicity";
  n4sch:HAS_PROPERTY <neo4j://graph.schema#Property/Ethnicity/ETHNIC> .

<neo4j://graph.schema#Property/Ethnicity/ETHNIC> a n4sch:Property;
  n4sch:Class.label "Ethnicity";
  n4sch:label "ETHNIC" .

<neo4j://graph.schema#Class/Planned%20Arm%20Code> a n4sch:Class;
  n4sch:label "Planned Arm Code";
  n4sch:CoreClass false;
  n4sch:from_domains "DM";
  n4sch:HAS_PROPERTY <neo4j://graph.schema#Property/Planned%20Arm%20Code/ARMCD> .

<neo4j://graph.schema#Property/Planned%20Arm%20Code/ARMCD> a n4sch:Property;
  n4sch:Class.label "Planned Arm Code";
  n4sch:label "ARMCD" .

<neo4j://graph.schema#Class/Description%20of%20Planned%20Arm> a n4sch:Class;
  n4sch:from_domains "DM";
  n4sch:CoreClass false;
  n4sch:label "Description of Planned Arm";
  n4sch:HAS_PROPERTY <neo4j://graph.schema#Property/Description%20of%20Planned%20Arm/ARM> .

<neo4j://graph.schema#Property/Description%20of%20Planned%20Arm/ARM> a n4sch:Property;
  n4sch:label "ARM";
  n4sch:Class.label "Description of Planned Arm" .

<neo4j://graph.schema#Class/Actual%20Arm%20Code> a n4sch:Class;
  n4sch:from_domains "DM";
  n4sch:CoreClass false;
  n4sch:label "Actual Arm Code";
  n4sch:HAS_PROPERTY <neo4j://graph.schema#Property/Actual%20Arm%20Code/ACTARMCD> .

<neo4j://graph.schema#Property/Actual%20Arm%20Code/ACTARMCD> a n4sch:Property;
  n4sch:Class.label "Actual Arm Code";
  n4sch:label "ACTARMCD" .

<neo4j://graph.schema#Class/Description%20of%20Actual%20Arm> a n4sch:Class;
  n4sch:label "Description of Actual Arm";
  n4sch:from_domains "DM";
  n4sch:CoreClass false;
  n4sch:HAS_PROPERTY <neo4j://graph.schema#Property/Description%20of%20Actual%20Arm/ACTARM> .

<neo4j://graph.schema#Property/Description%20of%20Actual%20Arm/ACTARM> a n4sch:Property;
  n4sch:label "ACTARM";
  n4sch:Class.label "Description of Actual Arm" .

<neo4j://graph.schema#Class/Country> a n4sch:Class;
  n4sch:label "Country";
  n4sch:from_domains "DM";
  n4sch:CoreClass false;
  n4sch:HAS_PROPERTY <neo4j://graph.schema#Property/Country/COUNTRY> .

<neo4j://graph.schema#Property/Country/COUNTRY> a n4sch:Property;
  n4sch:label "COUNTRY";
  n4sch:Class.label "Country" .

<neo4j://graph.schema#Class/Demographics%20Date/Time%20of%20Collection> a n4sch:Class;
  n4sch:from_domains "DM";
  n4sch:label "Demographics Date/Time of Collection";
  n4sch:CoreClass false;
  n4sch:HAS_PROPERTY <neo4j://graph.schema#Property/Demographics%20Date/Time%20of%20Collection/--DTC>;
  n4sch:SUBCLASS_OF <neo4j://graph.schema#Class/Date/Time%20of%20Collection> .

<neo4j://graph.schema#Property/Demographics%20Date/Time%20of%20Collection/--DTC> a
    n4sch:Property;
  n4sch:Class.label "Demographics Date/Time of Collection";
  n4sch:label "--DTC" .

<neo4j://graph.schema#Class/Date/Time%20of%20Collection> a n4sch:Class;
  n4sch:CoreClass false;
  n4sch:label "Date/Time of Collection";
  n4sch:from_domains "DM" .

<neo4j://graph.schema#Class/Study%20Day%20of%20Collection> a n4sch:Class;
  n4sch:label "Study Day of Collection";
  n4sch:CoreClass false;
  n4sch:from_domains "DM";
  n4sch:SUBCLASS_OF <neo4j://graph.schema#Class/Study%20Day%20of%20Visit/Collection/Exam> .

<neo4j://graph.schema#Class/Study%20Day%20of%20Visit/Collection/Exam> a n4sch:Class;
  n4sch:from_domains "DM";
  n4sch:CoreClass false;
  n4sch:label "Study Day of Visit/Collection/Exam" .

<neo4j://graph.schema#Property/Study%20Day%20of%20Collection/--DY> a n4sch:Property .

<neo4j://graph.schema#Class/Study%20Day%20of%20Collection> n4sch:HAS_PROPERTY <neo4j://graph.schema#Property/Study%20Day%20of%20Collection/--DY>;
  n4sch:SUBCLASS_OF <neo4j://graph.schema#Class/Study%20Day%20of%20Visit/Collection/Exam> .

<neo4j://graph.schema#Property/Study%20Day%20of%20Collection/--DY> n4sch:Class.label
    "Study Day of Collection";
  n4sch:label "--DY" .

<neo4j://graph.schema#Class/Study> n4sch:HAS_PROPERTY <neo4j://graph.schema#Property/Study/STUDYID> .

<neo4j://graph.schema#Metadata/mdr3_2/Source%20Data%20Column/DM/STUDYID> a <neo4j://graph.schema#Source%20Data%20Column>;
  n4sch:_domain_ "DM";
  n4sch:MAPS_TO_PROPERTY <neo4j://graph.schema#Property/Study/STUDYID>;
  n4sch:_columnname_ "STUDYID";
  n4sch:Order "1"^^<http://www.w3.org/2001/XMLSchema#long>;
  n4sch:Core "Required" .

<neo4j://graph.schema#Metadata/mdr3_2/Source%20Data%20Column/AE/STUDYID> a <neo4j://graph.schema#Source%20Data%20Column>;
  n4sch:Order "1"^^<http://www.w3.org/2001/XMLSchema#long>;
  n4sch:Core "Required";
  n4sch:_columnname_ "STUDYID";
  n4sch:MAPS_TO_PROPERTY <neo4j://graph.schema#Property/Study/STUDYID>;
  n4sch:_domain_ "AE" .

<neo4j://graph.schema#Metadata/mdr3_2/Source%20Data%20Column/AE/DOMAIN> a <neo4j://graph.schema#Source%20Data%20Column>;
  n4sch:MAPS_TO_PROPERTY <neo4j://graph.schema#Property/Adverse%20Events%20Identifiers/DOMAIN>;
  n4sch:_columnname_ "DOMAIN";
  n4sch:Order "2"^^<http://www.w3.org/2001/XMLSchema#long>;
  n4sch:Core "Required";
  n4sch:_domain_ "AE" .

<neo4j://graph.schema#Class/Adverse%20Events%20Identifiers> n4sch:HAS_PROPERTY <neo4j://graph.schema#Property/Adverse%20Events%20Identifiers/DOMAIN>,
    <neo4j://graph.schema#Property/Adverse%20Events%20Identifiers/--SEQ>, <neo4j://graph.schema#Property/Adverse%20Events%20Identifiers/--GRPID>,
    <neo4j://graph.schema#Property/Adverse%20Events%20Identifiers/--REFID>, <neo4j://graph.schema#Property/Adverse%20Events%20Identifiers/--SPID> .

<neo4j://graph.schema#Class/Subject> n4sch:HAS_PROPERTY <neo4j://graph.schema#Property/Subject/USUBJID> .

<neo4j://graph.schema#Metadata/mdr3_2/Source%20Data%20Column/AE/USUBJID> a <neo4j://graph.schema#Source%20Data%20Column>;
  n4sch:Order "3"^^<http://www.w3.org/2001/XMLSchema#long>;
  n4sch:Core "Required";
  n4sch:_columnname_ "USUBJID";
  n4sch:MAPS_TO_PROPERTY <neo4j://graph.schema#Property/Subject/USUBJID>;
  n4sch:_domain_ "AE" .

<neo4j://graph.schema#Metadata/mdr3_2/Source%20Data%20Column/DM/USUBJID> a <neo4j://graph.schema#Source%20Data%20Column>;
  n4sch:Order "3"^^<http://www.w3.org/2001/XMLSchema#long>;
  n4sch:Core "Required";
  n4sch:MAPS_TO_PROPERTY <neo4j://graph.schema#Property/Subject/USUBJID>;
  n4sch:_columnname_ "USUBJID";
  n4sch:_domain_ "DM" .

<neo4j://graph.schema#Metadata/mdr3_2/Source%20Data%20Column/DM/SUBJID> a <neo4j://graph.schema#Source%20Data%20Column>;
  n4sch:_domain_ "DM";
  n4sch:_columnname_ "SUBJID";
  n4sch:MAPS_TO_PROPERTY <neo4j://graph.schema#Property/Subject%20Identifier%20for%20the%20Study/SUBJID>;
  n4sch:Order "4"^^<http://www.w3.org/2001/XMLSchema#long>;
  n4sch:Core "Required" .

<neo4j://graph.schema#Class/Subject%20Identifier%20for%20the%20Study> n4sch:HAS_PROPERTY
    <neo4j://graph.schema#Property/Subject%20Identifier%20for%20the%20Study/SUBJID> .

<neo4j://graph.schema#Metadata/mdr3_2/Source%20Data%20Column/AE/SUBJID> a <neo4j://graph.schema#Source%20Data%20Column>;
  n4sch:_columnname_ "SUBJID";
  n4sch:Core "Permissible";
  n4sch:_domain_ "AE";
  n4sch:MAPS_TO_PROPERTY <neo4j://graph.schema#Property/Subject%20Identifier%20for%20the%20Study/SUBJID>;
  n4sch:Order "4"^^<http://www.w3.org/2001/XMLSchema#long> .

<neo4j://graph.schema#Metadata/mdr3_2/Source%20Data%20Column/AE/AESEQ> a <neo4j://graph.schema#Source%20Data%20Column>;
  n4sch:_domain_ "AE";
  n4sch:MAPS_TO_PROPERTY <neo4j://graph.schema#Property/Adverse%20Events%20Identifiers/--SEQ>;
  n4sch:Core "Required";
  n4sch:Order "5"^^<http://www.w3.org/2001/XMLSchema#long>;
  n4sch:_columnname_ "AESEQ" .

<neo4j://graph.schema#Metadata/mdr3_2/Source%20Data%20Column/AE/AEGRPID> a <neo4j://graph.schema#Source%20Data%20Column>;
  n4sch:MAPS_TO_PROPERTY <neo4j://graph.schema#Property/Adverse%20Events%20Identifiers/--GRPID>;
  n4sch:_domain_ "AE";
  n4sch:Core "Permissible";
  n4sch:_columnname_ "AEGRPID";
  n4sch:Order "6"^^<http://www.w3.org/2001/XMLSchema#long> .

<neo4j://graph.schema#Metadata/mdr3_2/Source%20Data%20Column/AE/AEREFID> a <neo4j://graph.schema#Source%20Data%20Column>;
  n4sch:MAPS_TO_PROPERTY <neo4j://graph.schema#Property/Adverse%20Events%20Identifiers/--REFID>;
  n4sch:_columnname_ "AEREFID";
  n4sch:Core "Permissible";
  n4sch:_domain_ "AE";
  n4sch:Order "7"^^<http://www.w3.org/2001/XMLSchema#long> .

<neo4j://graph.schema#Metadata/mdr3_2/Source%20Data%20Column/AE/AESPID> a <neo4j://graph.schema#Source%20Data%20Column>;
  n4sch:_domain_ "AE";
  n4sch:_columnname_ "AESPID";
  n4sch:MAPS_TO_PROPERTY <neo4j://graph.schema#Property/Adverse%20Events%20Identifiers/--SPID>;
  n4sch:Order "8"^^<http://www.w3.org/2001/XMLSchema#long>;
  n4sch:Core "Permissible" .

<neo4j://graph.schema#Class/Reported%20Term%20for%20the%20Adverse%20Event> n4sch:HAS_PROPERTY
    <neo4j://graph.schema#Property/Reported%20Term%20for%20the%20Adverse%20Event/--TERM>;
  n4sch:SUBCLASS_OF <neo4j://graph.schema#Class/Reported%20Term> .

<neo4j://graph.schema#Metadata/mdr3_2/Source%20Data%20Column/AE/AETERM> a <neo4j://graph.schema#Source%20Data%20Column>;
  n4sch:MAPS_TO_PROPERTY <neo4j://graph.schema#Property/Reported%20Term%20for%20the%20Adverse%20Event/--TERM>;
  n4sch:_columnname_ "AETERM";
  n4sch:Order "9"^^<http://www.w3.org/2001/XMLSchema#long>;
  n4sch:Core "Required";
  n4sch:_domain_ "AE" .

<neo4j://graph.schema#Class/Adverse%20Events%20Modified%20Reported%20Term> n4sch:HAS_PROPERTY
    <neo4j://graph.schema#Property/Adverse%20Events%20Modified%20Reported%20Term/--MODIFY>;
  n4sch:SUBCLASS_OF <neo4j://graph.schema#Class/Modified%20Reported%20Term> .

<neo4j://graph.schema#Metadata/mdr3_2/Source%20Data%20Column/AE/AEMODIFY> a <neo4j://graph.schema#Source%20Data%20Column>;
  n4sch:Core "Permissible";
  n4sch:_columnname_ "AEMODIFY";
  n4sch:MAPS_TO_PROPERTY <neo4j://graph.schema#Property/Adverse%20Events%20Modified%20Reported%20Term/--MODIFY>;
  n4sch:Order "10"^^<http://www.w3.org/2001/XMLSchema#long>;
  n4sch:_domain_ "AE" .

<neo4j://graph.schema#Metadata/mdr3_2/Source%20Data%20Column/AE/AELLT> a <neo4j://graph.schema#Source%20Data%20Column>;
  n4sch:_columnname_ "AELLT";
  n4sch:MAPS_TO_PROPERTY <neo4j://graph.schema#Property/Adverse%20Events%20Lowest%20Level%20Term/--LLT>;
  n4sch:Order "11"^^<http://www.w3.org/2001/XMLSchema#long>;
  n4sch:_domain_ "AE";
  n4sch:Core "Expected" .

<neo4j://graph.schema#Class/Adverse%20Events%20Lowest%20Level%20Term> n4sch:HAS_PROPERTY
    <neo4j://graph.schema#Property/Adverse%20Events%20Lowest%20Level%20Term/--LLT>;
  n4sch:SUBCLASS_OF <neo4j://graph.schema#Class/Lowest%20Level%20Term> .

<neo4j://graph.schema#Metadata/mdr3_2/Source%20Data%20Column/AE/AELLTCD> a <neo4j://graph.schema#Source%20Data%20Column>;
  n4sch:_columnname_ "AELLTCD";
  n4sch:MAPS_TO_PROPERTY <neo4j://graph.schema#Property/Adverse%20Events%20Lowest%20Level%20Term%20Code/--LLTCD>;
  n4sch:_domain_ "AE";
  n4sch:Core "Expected";
  n4sch:Order "12"^^<http://www.w3.org/2001/XMLSchema#long> .

<neo4j://graph.schema#Class/Adverse%20Events%20Lowest%20Level%20Term%20Code> n4sch:HAS_PROPERTY
    <neo4j://graph.schema#Property/Adverse%20Events%20Lowest%20Level%20Term%20Code/--LLTCD>;
  n4sch:SUBCLASS_OF <neo4j://graph.schema#Class/Lowest%20Level%20Term%20Code> .

<neo4j://graph.schema#Metadata/mdr3_2/Source%20Data%20Column/AE/AEDECOD> a <neo4j://graph.schema#Source%20Data%20Column>;
  n4sch:Order "13"^^<http://www.w3.org/2001/XMLSchema#long>;
  n4sch:MAPS_TO_PROPERTY <neo4j://graph.schema#Property/Adverse%20Events%20Dictionary-Derived%20Term/--DECOD>;
  n4sch:_columnname_ "AEDECOD";
  n4sch:_domain_ "AE";
  n4sch:Core "Required" .

<neo4j://graph.schema#Class/Adverse%20Events%20Dictionary-Derived%20Term> n4sch:HAS_PROPERTY
    <neo4j://graph.schema#Property/Adverse%20Events%20Dictionary-Derived%20Term/--DECOD>;
  n4sch:SUBCLASS_OF <neo4j://graph.schema#Class/Dictionary-Derived%20Term> .

<neo4j://graph.schema#Class/Adverse%20Events%20Preferred%20Term%20Code> n4sch:HAS_PROPERTY
    <neo4j://graph.schema#Property/Adverse%20Events%20Preferred%20Term%20Code/--PTCD>;
  n4sch:SUBCLASS_OF <neo4j://graph.schema#Class/Preferred%20Term%20Code> .

<neo4j://graph.schema#Metadata/mdr3_2/Source%20Data%20Column/AE/AEPTCD> a <neo4j://graph.schema#Source%20Data%20Column>;
  n4sch:_columnname_ "AEPTCD";
  n4sch:MAPS_TO_PROPERTY <neo4j://graph.schema#Property/Adverse%20Events%20Preferred%20Term%20Code/--PTCD>;
  n4sch:_domain_ "AE";
  n4sch:Core "Expected";
  n4sch:Order "14"^^<http://www.w3.org/2001/XMLSchema#long> .

<neo4j://graph.schema#Metadata/mdr3_2/Source%20Data%20Column/AE/AEHLT> a <neo4j://graph.schema#Source%20Data%20Column>;
  n4sch:_domain_ "AE";
  n4sch:MAPS_TO_PROPERTY <neo4j://graph.schema#Property/Adverse%20Events%20High%20Level%20Term/--HLT>;
  n4sch:_columnname_ "AEHLT";
  n4sch:Order "15"^^<http://www.w3.org/2001/XMLSchema#long>;
  n4sch:Core "Expected" .

<neo4j://graph.schema#Class/Adverse%20Events%20High%20Level%20Term> n4sch:HAS_PROPERTY
    <neo4j://graph.schema#Property/Adverse%20Events%20High%20Level%20Term/--HLT>;
  n4sch:SUBCLASS_OF <neo4j://graph.schema#Class/High%20Level%20Term> .

<neo4j://graph.schema#Metadata/mdr3_2/Source%20Data%20Column/AE/AEHLTCD> a <neo4j://graph.schema#Source%20Data%20Column>;
  n4sch:Core "Expected";
  n4sch:_domain_ "AE";
  n4sch:MAPS_TO_PROPERTY <neo4j://graph.schema#Property/Adverse%20Events%20High%20Level%20Term%20Code/--HLTCD>;
  n4sch:_columnname_ "AEHLTCD";
  n4sch:Order "16"^^<http://www.w3.org/2001/XMLSchema#long> .

<neo4j://graph.schema#Class/Adverse%20Events%20High%20Level%20Term%20Code> n4sch:HAS_PROPERTY
    <neo4j://graph.schema#Property/Adverse%20Events%20High%20Level%20Term%20Code/--HLTCD>;
  n4sch:SUBCLASS_OF <neo4j://graph.schema#Class/High%20Level%20Term%20Code> .

<neo4j://graph.schema#Metadata/mdr3_2/Source%20Data%20Column/AE/AEHLGT> a <neo4j://graph.schema#Source%20Data%20Column>;
  n4sch:MAPS_TO_PROPERTY <neo4j://graph.schema#Property/Adverse%20Events%20High%20Level%20Group%20Term/--HLGT>;
  n4sch:Order "17"^^<http://www.w3.org/2001/XMLSchema#long>;
  n4sch:_domain_ "AE";
  n4sch:_columnname_ "AEHLGT";
  n4sch:Core "Expected" .

<neo4j://graph.schema#Class/Adverse%20Events%20High%20Level%20Group%20Term> n4sch:HAS_PROPERTY
    <neo4j://graph.schema#Property/Adverse%20Events%20High%20Level%20Group%20Term/--HLGT>;
  n4sch:SUBCLASS_OF <neo4j://graph.schema#Class/High%20Level%20Group%20Term> .

<neo4j://graph.schema#Metadata/mdr3_2/Source%20Data%20Column/AE/AEHLGTCD> a <neo4j://graph.schema#Source%20Data%20Column>;
  n4sch:MAPS_TO_PROPERTY <neo4j://graph.schema#Property/Adverse%20Events%20High%20Level%20Group%20Term%20Code/--HLGTCD>;
  n4sch:_columnname_ "AEHLGTCD";
  n4sch:_domain_ "AE";
  n4sch:Order "18"^^<http://www.w3.org/2001/XMLSchema#long>;
  n4sch:Core "Expected" .

<neo4j://graph.schema#Class/Adverse%20Events%20High%20Level%20Group%20Term%20Code>
  n4sch:HAS_PROPERTY <neo4j://graph.schema#Property/Adverse%20Events%20High%20Level%20Group%20Term%20Code/--HLGTCD>;
  n4sch:SUBCLASS_OF <neo4j://graph.schema#Class/High%20Level%20Group%20Term%20Code> .

<neo4j://graph.schema#Class/Category%20for%20Adverse%20Event> n4sch:HAS_PROPERTY <neo4j://graph.schema#Property/Category%20for%20Adverse%20Event/--CAT>;
  n4sch:SUBCLASS_OF <neo4j://graph.schema#Class/Category> .

<neo4j://graph.schema#Metadata/mdr3_2/Source%20Data%20Column/AE/AECAT> a <neo4j://graph.schema#Source%20Data%20Column>;
  n4sch:Core "Permissible";
  n4sch:_domain_ "AE";
  n4sch:Order "19"^^<http://www.w3.org/2001/XMLSchema#long>;
  n4sch:_columnname_ "AECAT";
  n4sch:MAPS_TO_PROPERTY <neo4j://graph.schema#Property/Category%20for%20Adverse%20Event/--CAT> .

<neo4j://graph.schema#Class/Subcategory%20for%20Adverse%20Event> n4sch:HAS_PROPERTY
    <neo4j://graph.schema#Property/Subcategory%20for%20Adverse%20Event/--SCAT>;
  n4sch:SUBCLASS_OF <neo4j://graph.schema#Class/Subcategory> .

<neo4j://graph.schema#Metadata/mdr3_2/Source%20Data%20Column/AE/AESCAT> a <neo4j://graph.schema#Source%20Data%20Column>;
  n4sch:MAPS_TO_PROPERTY <neo4j://graph.schema#Property/Subcategory%20for%20Adverse%20Event/--SCAT>;
  n4sch:Core "Permissible";
  n4sch:_domain_ "AE";
  n4sch:_columnname_ "AESCAT";
  n4sch:Order "20"^^<http://www.w3.org/2001/XMLSchema#long> .

<neo4j://graph.schema#Metadata/mdr3_2/Source%20Data%20Column/AE/AEPRESP> a <neo4j://graph.schema#Source%20Data%20Column>;
  n4sch:Order "21"^^<http://www.w3.org/2001/XMLSchema#long>;
  n4sch:_columnname_ "AEPRESP";
  n4sch:_domain_ "AE";
  n4sch:MAPS_TO_PROPERTY <neo4j://graph.schema#Property/Pre-Specified%20Adverse%20Event/--PRESP>;
  n4sch:Core "Permissible" .

<neo4j://graph.schema#Class/Pre-Specified%20Adverse%20Event> n4sch:HAS_PROPERTY <neo4j://graph.schema#Property/Pre-Specified%20Adverse%20Event/--PRESP>;
  n4sch:SUBCLASS_OF <neo4j://graph.schema#Class/Pre-specified> .

<neo4j://graph.schema#Class/Adverse%20Events%20Body%20System%20or%20Organ%20Class>
  n4sch:HAS_PROPERTY <neo4j://graph.schema#Property/Adverse%20Events%20Body%20System%20or%20Organ%20Class/--BODSYS>;
  n4sch:SUBCLASS_OF <neo4j://graph.schema#Class/Body%20System%20or%20Organ%20Class> .

<neo4j://graph.schema#Metadata/mdr3_2/Source%20Data%20Column/AE/AEBODSYS> a <neo4j://graph.schema#Source%20Data%20Column>;
  n4sch:Order "22"^^<http://www.w3.org/2001/XMLSchema#long>;
  n4sch:Core "Expected";
  n4sch:MAPS_TO_PROPERTY <neo4j://graph.schema#Property/Adverse%20Events%20Body%20System%20or%20Organ%20Class/--BODSYS>;
  n4sch:_domain_ "AE";
  n4sch:_columnname_ "AEBODSYS" .

<neo4j://graph.schema#Class/Adverse%20Events%20Body%20System%20or%20Organ%20Class%20Code>
  n4sch:HAS_PROPERTY <neo4j://graph.schema#Property/Adverse%20Events%20Body%20System%20or%20Organ%20Class%20Code/--BDSYCD>;
  n4sch:SUBCLASS_OF <neo4j://graph.schema#Class/Body%20System%20or%20Organ%20Class%20Code> .

<neo4j://graph.schema#Metadata/mdr3_2/Source%20Data%20Column/AE/AEBDSYCD> a <neo4j://graph.schema#Source%20Data%20Column>;
  n4sch:_domain_ "AE";
  n4sch:Core "Expected";
  n4sch:_columnname_ "AEBDSYCD";
  n4sch:MAPS_TO_PROPERTY <neo4j://graph.schema#Property/Adverse%20Events%20Body%20System%20or%20Organ%20Class%20Code/--BDSYCD>;
  n4sch:Order "23"^^<http://www.w3.org/2001/XMLSchema#long> .

<neo4j://graph.schema#Metadata/mdr3_2/Source%20Data%20Column/AE/AESOC> a <neo4j://graph.schema#Source%20Data%20Column>;
  n4sch:Core "Expected";
  n4sch:_domain_ "AE";
  n4sch:_columnname_ "AESOC";
  n4sch:Order "24"^^<http://www.w3.org/2001/XMLSchema#long>;
  n4sch:MAPS_TO_PROPERTY <neo4j://graph.schema#Property/Adverse%20Events%20Primary%20System%20Organ%20Class/--SOC> .

<neo4j://graph.schema#Class/Adverse%20Events%20Primary%20System%20Organ%20Class> n4sch:HAS_PROPERTY
    <neo4j://graph.schema#Property/Adverse%20Events%20Primary%20System%20Organ%20Class/--SOC>;
  n4sch:SUBCLASS_OF <neo4j://graph.schema#Class/Primary%20System%20Organ%20Class> .

<neo4j://graph.schema#Class/Adverse%20Events%20Primary%20System%20Organ%20Class%20Code>
  n4sch:HAS_PROPERTY <neo4j://graph.schema#Property/Adverse%20Events%20Primary%20System%20Organ%20Class%20Code/--SOCCD>;
  n4sch:SUBCLASS_OF <neo4j://graph.schema#Class/Primary%20System%20Organ%20Class%20Code> .

<neo4j://graph.schema#Metadata/mdr3_2/Source%20Data%20Column/AE/AESOCCD> a <neo4j://graph.schema#Source%20Data%20Column>;
  n4sch:_domain_ "AE";
  n4sch:Order "25"^^<http://www.w3.org/2001/XMLSchema#long>;
  n4sch:MAPS_TO_PROPERTY <neo4j://graph.schema#Property/Adverse%20Events%20Primary%20System%20Organ%20Class%20Code/--SOCCD>;
  n4sch:Core "Expected";
  n4sch:_columnname_ "AESOCCD" .

<neo4j://graph.schema#Class/Adverse%20Events%20Location%20of%20Event> n4sch:HAS_PROPERTY
    <neo4j://graph.schema#Property/Adverse%20Events%20Location%20of%20Event/--LOC>;
  n4sch:SUBCLASS_OF <neo4j://graph.schema#Class/Location%20of%20Event> .

<neo4j://graph.schema#Metadata/mdr3_2/Source%20Data%20Column/AE/AELOC> a <neo4j://graph.schema#Source%20Data%20Column>;
  n4sch:Core "Permissible";
  n4sch:Order "26"^^<http://www.w3.org/2001/XMLSchema#long>;
  n4sch:MAPS_TO_PROPERTY <neo4j://graph.schema#Property/Adverse%20Events%20Location%20of%20Event/--LOC>;
  n4sch:_domain_ "AE";
  n4sch:_columnname_ "AELOC" .

<neo4j://graph.schema#Class/Severity/Intensity> n4sch:HAS_PROPERTY <neo4j://graph.schema#Property/Severity/Intensity/--SEV>;
  n4sch:SUBCLASS_OF <neo4j://graph.schema#Class/Severity> .

<neo4j://graph.schema#Metadata/mdr3_2/Source%20Data%20Column/AE/AESEV> a <neo4j://graph.schema#Source%20Data%20Column>;
  n4sch:Core "Permissible";
  n4sch:Order "27"^^<http://www.w3.org/2001/XMLSchema#long>;
  n4sch:_columnname_ "AESEV";
  n4sch:_domain_ "AE";
  n4sch:MAPS_TO_PROPERTY <neo4j://graph.schema#Property/Severity/Intensity/--SEV> .

<neo4j://graph.schema#Class/Adverse%20Events%20Serious%20Event> n4sch:HAS_PROPERTY
    <neo4j://graph.schema#Property/Adverse%20Events%20Serious%20Event/--SER>;
  n4sch:SUBCLASS_OF <neo4j://graph.schema#Class/Serious%20Event> .

<neo4j://graph.schema#Metadata/mdr3_2/Source%20Data%20Column/AE/AESER> a <neo4j://graph.schema#Source%20Data%20Column>;
  n4sch:_domain_ "AE";
  n4sch:Order "28"^^<http://www.w3.org/2001/XMLSchema#long>;
  n4sch:MAPS_TO_PROPERTY <neo4j://graph.schema#Property/Adverse%20Events%20Serious%20Event/--SER>;
  n4sch:Core "Expected";
  n4sch:_columnname_ "AESER" .

<neo4j://graph.schema#Class/Adverse%20Events%20Action%20Taken%20with%20Study%20Treatment>
  n4sch:HAS_PROPERTY <neo4j://graph.schema#Property/Adverse%20Events%20Action%20Taken%20with%20Study%20Treatment/--ACN>;
  n4sch:SUBCLASS_OF <neo4j://graph.schema#Class/Action%20Taken%20with%20Study%20Treatment> .

<neo4j://graph.schema#Metadata/mdr3_2/Source%20Data%20Column/AE/AEACN> a <neo4j://graph.schema#Source%20Data%20Column>;
  n4sch:_columnname_ "AEACN";
  n4sch:MAPS_TO_PROPERTY <neo4j://graph.schema#Property/Adverse%20Events%20Action%20Taken%20with%20Study%20Treatment/--ACN>;
  n4sch:_domain_ "AE";
  n4sch:Order "29"^^<http://www.w3.org/2001/XMLSchema#long>;
  n4sch:Core "Expected" .

<neo4j://graph.schema#Class/Adverse%20Events%20Other%20Action%20Taken> n4sch:HAS_PROPERTY
    <neo4j://graph.schema#Property/Adverse%20Events%20Other%20Action%20Taken/--ACNOTH>;
  n4sch:SUBCLASS_OF <neo4j://graph.schema#Class/Other%20Action%20Taken> .

<neo4j://graph.schema#Metadata/mdr3_2/Source%20Data%20Column/AE/AEACNOTH> a <neo4j://graph.schema#Source%20Data%20Column>;
  n4sch:MAPS_TO_PROPERTY <neo4j://graph.schema#Property/Adverse%20Events%20Other%20Action%20Taken/--ACNOTH>;
  n4sch:Core "Permissible";
  n4sch:_domain_ "AE";
  n4sch:Order "30"^^<http://www.w3.org/2001/XMLSchema#long>;
  n4sch:_columnname_ "AEACNOTH" .

<neo4j://graph.schema#Metadata/mdr3_2/Source%20Data%20Column/AE/AEREL> a <neo4j://graph.schema#Source%20Data%20Column>;
  n4sch:MAPS_TO_PROPERTY <neo4j://graph.schema#Property/Adverse%20Events%20Causality/--REL>;
  n4sch:_columnname_ "AEREL";
  n4sch:Core "Expected";
  n4sch:Order "31"^^<http://www.w3.org/2001/XMLSchema#long>;
  n4sch:_domain_ "AE" .

<neo4j://graph.schema#Class/Adverse%20Events%20Causality> n4sch:HAS_PROPERTY <neo4j://graph.schema#Property/Adverse%20Events%20Causality/--REL>;
  n4sch:SUBCLASS_OF <neo4j://graph.schema#Class/Causality> .

<neo4j://graph.schema#Metadata/mdr3_2/Source%20Data%20Column/AE/AERELNST> a <neo4j://graph.schema#Source%20Data%20Column>;
  n4sch:Order "32"^^<http://www.w3.org/2001/XMLSchema#long>;
  n4sch:MAPS_TO_PROPERTY <neo4j://graph.schema#Property/Adverse%20Events%20Relationship%20to%20Non-Study%20Treatment/--RELNST>;
  n4sch:_domain_ "AE";
  n4sch:Core "Permissible";
  n4sch:_columnname_ "AERELNST" .

<neo4j://graph.schema#Class/Adverse%20Events%20Relationship%20to%20Non-Study%20Treatment>
  n4sch:HAS_PROPERTY <neo4j://graph.schema#Property/Adverse%20Events%20Relationship%20to%20Non-Study%20Treatment/--RELNST>;
  n4sch:SUBCLASS_OF <neo4j://graph.schema#Class/Relationship%20to%20Non-Study%20Treatment> .

<neo4j://graph.schema#Metadata/mdr3_2/Source%20Data%20Column/AE/AEPATT> a <neo4j://graph.schema#Source%20Data%20Column>;
  n4sch:_domain_ "AE";
  n4sch:_columnname_ "AEPATT";
  n4sch:Core "Permissible";
  n4sch:MAPS_TO_PROPERTY <neo4j://graph.schema#Property/Pattern%20of%20Adverse%20Event/--PATT>;
  n4sch:Order "33"^^<http://www.w3.org/2001/XMLSchema#long> .

<neo4j://graph.schema#Class/Pattern%20of%20Adverse%20Event> n4sch:HAS_PROPERTY <neo4j://graph.schema#Property/Pattern%20of%20Adverse%20Event/--PATT>;
  n4sch:SUBCLASS_OF <neo4j://graph.schema#Class/Pattern%20of%20Event> .

<neo4j://graph.schema#Class/Outcome%20of%20Adverse%20Event> n4sch:HAS_PROPERTY <neo4j://graph.schema#Property/Outcome%20of%20Adverse%20Event/--OUT>;
  n4sch:SUBCLASS_OF <neo4j://graph.schema#Class/Outcome%20of%20Event> .

<neo4j://graph.schema#Metadata/mdr3_2/Source%20Data%20Column/AE/AEOUT> a <neo4j://graph.schema#Source%20Data%20Column>;
  n4sch:_domain_ "AE";
  n4sch:MAPS_TO_PROPERTY <neo4j://graph.schema#Property/Outcome%20of%20Adverse%20Event/--OUT>;
  n4sch:Order "34"^^<http://www.w3.org/2001/XMLSchema#long>;
  n4sch:Core "Permissible";
  n4sch:_columnname_ "AEOUT" .

<neo4j://graph.schema#Class/Adverse%20Events%20Involves%20Cancer> n4sch:HAS_PROPERTY
    <neo4j://graph.schema#Property/Adverse%20Events%20Involves%20Cancer/--SCAN>;
  n4sch:SUBCLASS_OF <neo4j://graph.schema#Class/Involves%20Cancer> .

<neo4j://graph.schema#Metadata/mdr3_2/Source%20Data%20Column/AE/AESCAN> a <neo4j://graph.schema#Source%20Data%20Column>;
  n4sch:Core "Permissible";
  n4sch:_columnname_ "AESCAN";
  n4sch:_domain_ "AE";
  n4sch:MAPS_TO_PROPERTY <neo4j://graph.schema#Property/Adverse%20Events%20Involves%20Cancer/--SCAN>;
  n4sch:Order "35"^^<http://www.w3.org/2001/XMLSchema#long> .

<neo4j://graph.schema#Metadata/mdr3_2/Source%20Data%20Column/AE/AESCONG> a <neo4j://graph.schema#Source%20Data%20Column>;
  n4sch:Core "Expected";
  n4sch:_columnname_ "AESCONG";
  n4sch:MAPS_TO_PROPERTY <neo4j://graph.schema#Property/Adverse%20Events%20Congenital%20Anomaly%20or%20Birth%20Defect/--SCONG>;
  n4sch:Order "36"^^<http://www.w3.org/2001/XMLSchema#long>;
  n4sch:_domain_ "AE" .

<neo4j://graph.schema#Class/Adverse%20Events%20Congenital%20Anomaly%20or%20Birth%20Defect>
  n4sch:HAS_PROPERTY <neo4j://graph.schema#Property/Adverse%20Events%20Congenital%20Anomaly%20or%20Birth%20Defect/--SCONG>;
  n4sch:SUBCLASS_OF <neo4j://graph.schema#Class/Congenital%20Anomaly%20or%20Birth%20Defect> .

<neo4j://graph.schema#Metadata/mdr3_2/Source%20Data%20Column/AE/AESDISAB> a <neo4j://graph.schema#Source%20Data%20Column>;
  n4sch:Core "Expected";
  n4sch:_domain_ "AE";
  n4sch:Order "37"^^<http://www.w3.org/2001/XMLSchema#long>;
  n4sch:MAPS_TO_PROPERTY <neo4j://graph.schema#Property/Adverse%20Events%20Persist%20or%20Signif%20Disability/Incapacity/--SDISAB>;
  n4sch:_columnname_ "AESDISAB" .

<neo4j://graph.schema#Class/Adverse%20Events%20Persist%20or%20Signif%20Disability/Incapacity>
  n4sch:HAS_PROPERTY <neo4j://graph.schema#Property/Adverse%20Events%20Persist%20or%20Signif%20Disability/Incapacity/--SDISAB>;
  n4sch:SUBCLASS_OF <neo4j://graph.schema#Class/Persist%20or%20Signif%20Disability/Incapacity> .

<neo4j://graph.schema#Class/Adverse%20Events%20Results%20in%20Death> n4sch:HAS_PROPERTY
    <neo4j://graph.schema#Property/Adverse%20Events%20Results%20in%20Death/--SDTH>;
  n4sch:SUBCLASS_OF <neo4j://graph.schema#Class/Results%20in%20Death> .

<neo4j://graph.schema#Metadata/mdr3_2/Source%20Data%20Column/AE/AESDTH> a <neo4j://graph.schema#Source%20Data%20Column>;
  n4sch:MAPS_TO_PROPERTY <neo4j://graph.schema#Property/Adverse%20Events%20Results%20in%20Death/--SDTH>;
  n4sch:_columnname_ "AESDTH";
  n4sch:Order "38"^^<http://www.w3.org/2001/XMLSchema#long>;
  n4sch:_domain_ "AE";
  n4sch:Core "Expected" .

<neo4j://graph.schema#Class/Adverse%20Events%20Requires%20or%20Prolongs%20Hospitalization>
  n4sch:HAS_PROPERTY <neo4j://graph.schema#Property/Adverse%20Events%20Requires%20or%20Prolongs%20Hospitalization/--SHOSP>;
  n4sch:SUBCLASS_OF <neo4j://graph.schema#Class/Requires%20or%20Prolongs%20Hospitalization> .

<neo4j://graph.schema#Metadata/mdr3_2/Source%20Data%20Column/AE/AESHOSP> a <neo4j://graph.schema#Source%20Data%20Column>;
  n4sch:Order "39"^^<http://www.w3.org/2001/XMLSchema#long>;
  n4sch:_columnname_ "AESHOSP";
  n4sch:_domain_ "AE";
  n4sch:Core "Expected";
  n4sch:MAPS_TO_PROPERTY <neo4j://graph.schema#Property/Adverse%20Events%20Requires%20or%20Prolongs%20Hospitalization/--SHOSP> .

<neo4j://graph.schema#Metadata/mdr3_2/Source%20Data%20Column/AE/AESLIFE> a <neo4j://graph.schema#Source%20Data%20Column>;
  n4sch:_domain_ "AE";
  n4sch:Core "Expected";
  n4sch:Order "40"^^<http://www.w3.org/2001/XMLSchema#long>;
  n4sch:MAPS_TO_PROPERTY <neo4j://graph.schema#Property/Adverse%20Events%20Is%20Life%20Threatening/--SLIFE>;
  n4sch:_columnname_ "AESLIFE" .

<neo4j://graph.schema#Class/Adverse%20Events%20Is%20Life%20Threatening> n4sch:HAS_PROPERTY
    <neo4j://graph.schema#Property/Adverse%20Events%20Is%20Life%20Threatening/--SLIFE>;
  n4sch:SUBCLASS_OF <neo4j://graph.schema#Class/Is%20Life%20Threatening> .

<neo4j://graph.schema#Metadata/mdr3_2/Source%20Data%20Column/AE/AESOD> a <neo4j://graph.schema#Source%20Data%20Column>;
  n4sch:_columnname_ "AESOD";
  n4sch:_domain_ "AE";
  n4sch:Order "41"^^<http://www.w3.org/2001/XMLSchema#long>;
  n4sch:MAPS_TO_PROPERTY <neo4j://graph.schema#Property/Adverse%20Events%20Occurred%20with%20Overdose/--SOD>;
  n4sch:Core "Permissible" .

<neo4j://graph.schema#Class/Adverse%20Events%20Occurred%20with%20Overdose> n4sch:HAS_PROPERTY
    <neo4j://graph.schema#Property/Adverse%20Events%20Occurred%20with%20Overdose/--SOD>;
  n4sch:SUBCLASS_OF <neo4j://graph.schema#Class/Occurred%20with%20Overdose> .

<neo4j://graph.schema#Class/Adverse%20Events%20Other%20Medically%20Important%20Serious%20Event>
  n4sch:HAS_PROPERTY <neo4j://graph.schema#Property/Adverse%20Events%20Other%20Medically%20Important%20Serious%20Event/--SMIE>;
  n4sch:SUBCLASS_OF <neo4j://graph.schema#Class/Other%20Medically%20Important%20Serious%20Event> .

<neo4j://graph.schema#Metadata/mdr3_2/Source%20Data%20Column/AE/AESMIE> a <neo4j://graph.schema#Source%20Data%20Column>;
  n4sch:Core "Expected";
  n4sch:MAPS_TO_PROPERTY <neo4j://graph.schema#Property/Adverse%20Events%20Other%20Medically%20Important%20Serious%20Event/--SMIE>;
  n4sch:Order "42"^^<http://www.w3.org/2001/XMLSchema#long>;
  n4sch:_columnname_ "AESMIE";
  n4sch:_domain_ "AE" .

<neo4j://graph.schema#Metadata/mdr3_2/Source%20Data%20Column/AE/AECONTRT> a <neo4j://graph.schema#Source%20Data%20Column>;
  n4sch:_domain_ "AE";
  n4sch:Order "43"^^<http://www.w3.org/2001/XMLSchema#long>;
  n4sch:_columnname_ "AECONTRT";
  n4sch:Core "Permissible";
  n4sch:MAPS_TO_PROPERTY <neo4j://graph.schema#Property/Adverse%20Events%20Concomitant%20or%20Additional%20Trtmnt%20Given/--CONTRT> .

<neo4j://graph.schema#Class/Adverse%20Events%20Concomitant%20or%20Additional%20Trtmnt%20Given>
  n4sch:HAS_PROPERTY <neo4j://graph.schema#Property/Adverse%20Events%20Concomitant%20or%20Additional%20Trtmnt%20Given/--CONTRT>;
  n4sch:SUBCLASS_OF <neo4j://graph.schema#Class/Concomitant%20or%20Additional%20Trtmnt%20Given> .

<neo4j://graph.schema#Class/Standard%20Toxicity%20Grade> n4sch:HAS_PROPERTY <neo4j://graph.schema#Property/Standard%20Toxicity%20Grade/--TOXGR>;
  n4sch:SUBCLASS_OF <neo4j://graph.schema#Class/Toxicity%20Grade> .

<neo4j://graph.schema#Metadata/mdr3_2/Source%20Data%20Column/AE/AETOXGR> a <neo4j://graph.schema#Source%20Data%20Column>;
  n4sch:_columnname_ "AETOXGR";
  n4sch:Core "Permissible";
  n4sch:MAPS_TO_PROPERTY <neo4j://graph.schema#Property/Standard%20Toxicity%20Grade/--TOXGR>;
  n4sch:_domain_ "AE";
  n4sch:Order "44"^^<http://www.w3.org/2001/XMLSchema#long> .

<neo4j://graph.schema#Class/Adverse%20Events%20Epoch> n4sch:HAS_PROPERTY <neo4j://graph.schema#Property/Adverse%20Events%20Epoch/EPOCH>;
  n4sch:SUBCLASS_OF <neo4j://graph.schema#Class/Epoch> .

<neo4j://graph.schema#Metadata/mdr3_2/Source%20Data%20Column/AE/EPOCH> a <neo4j://graph.schema#Source%20Data%20Column>;
  n4sch:Core "Permissible";
  n4sch:_columnname_ "EPOCH";
  n4sch:Order "45"^^<http://www.w3.org/2001/XMLSchema#long>;
  n4sch:_domain_ "AE";
  n4sch:MAPS_TO_PROPERTY <neo4j://graph.schema#Property/Adverse%20Events%20Epoch/EPOCH> .

<neo4j://graph.schema#Class/Start%20Date/Time%20of%20Adverse%20Event> n4sch:HAS_PROPERTY
    <neo4j://graph.schema#Property/Start%20Date/Time%20of%20Adverse%20Event/--STDTC>;
  n4sch:SUBCLASS_OF <neo4j://graph.schema#Class/Start%20Date/Time%20of%20Observation> .

<neo4j://graph.schema#Metadata/mdr3_2/Source%20Data%20Column/AE/AESTDTC> a <neo4j://graph.schema#Source%20Data%20Column>;
  n4sch:_domain_ "AE";
  n4sch:MAPS_TO_PROPERTY <neo4j://graph.schema#Property/Start%20Date/Time%20of%20Adverse%20Event/--STDTC>;
  n4sch:Core "Expected";
  n4sch:_columnname_ "AESTDTC";
  n4sch:Order "46"^^<http://www.w3.org/2001/XMLSchema#long> .

<neo4j://graph.schema#Metadata/mdr3_2/Source%20Data%20Column/AE/AEENDTC> a <neo4j://graph.schema#Source%20Data%20Column>;
  n4sch:_columnname_ "AEENDTC";
  n4sch:Order "47"^^<http://www.w3.org/2001/XMLSchema#long>;
  n4sch:Core "Expected";
  n4sch:MAPS_TO_PROPERTY <neo4j://graph.schema#Property/End%20Date/Time%20of%20Adverse%20Event/--ENDTC>;
  n4sch:_domain_ "AE" .

<neo4j://graph.schema#Class/End%20Date/Time%20of%20Adverse%20Event> n4sch:HAS_PROPERTY
    <neo4j://graph.schema#Property/End%20Date/Time%20of%20Adverse%20Event/--ENDTC>;
  n4sch:SUBCLASS_OF <neo4j://graph.schema#Class/End%20Date/Time%20of%20Observation> .

<neo4j://graph.schema#Class/Study%20Day%20of%20Start%20of%20Adverse%20Event> n4sch:HAS_PROPERTY
    <neo4j://graph.schema#Property/Study%20Day%20of%20Start%20of%20Adverse%20Event/--STDY>;
  n4sch:SUBCLASS_OF <neo4j://graph.schema#Class/Study%20Day%20of%20Start%20of%20Observation> .

<neo4j://graph.schema#Metadata/mdr3_2/Source%20Data%20Column/AE/AESTDY> a <neo4j://graph.schema#Source%20Data%20Column>;
  n4sch:MAPS_TO_PROPERTY <neo4j://graph.schema#Property/Study%20Day%20of%20Start%20of%20Adverse%20Event/--STDY>;
  n4sch:_domain_ "AE";
  n4sch:Core "Permissible";
  n4sch:Order "48"^^<http://www.w3.org/2001/XMLSchema#long>;
  n4sch:_columnname_ "AESTDY" .

<neo4j://graph.schema#Class/Study%20Day%20of%20End%20of%20Adverse%20Event> n4sch:HAS_PROPERTY
    <neo4j://graph.schema#Property/Study%20Day%20of%20End%20of%20Adverse%20Event/--ENDY>;
  n4sch:SUBCLASS_OF <neo4j://graph.schema#Class/Study%20Day%20of%20End%20of%20Observation> .

<neo4j://graph.schema#Metadata/mdr3_2/Source%20Data%20Column/AE/AEENDY> a <neo4j://graph.schema#Source%20Data%20Column>;
  n4sch:Core "Permissible";
  n4sch:Order "49"^^<http://www.w3.org/2001/XMLSchema#long>;
  n4sch:_domain_ "AE";
  n4sch:_columnname_ "AEENDY";
  n4sch:MAPS_TO_PROPERTY <neo4j://graph.schema#Property/Study%20Day%20of%20End%20of%20Adverse%20Event/--ENDY> .

<neo4j://graph.schema#Metadata/mdr3_2/Source%20Data%20Column/AE/AEDUR> a <neo4j://graph.schema#Source%20Data%20Column>;
  n4sch:MAPS_TO_PROPERTY <neo4j://graph.schema#Property/Duration%20of%20Adverse%20Event/--DUR>;
  n4sch:_domain_ "AE";
  n4sch:Order "50"^^<http://www.w3.org/2001/XMLSchema#long>;
  n4sch:Core "Permissible";
  n4sch:_columnname_ "AEDUR" .

<neo4j://graph.schema#Class/Duration%20of%20Adverse%20Event> n4sch:HAS_PROPERTY <neo4j://graph.schema#Property/Duration%20of%20Adverse%20Event/--DUR> .

<neo4j://graph.schema#Class/Adverse%20Events%20End%20Relative%20to%20Reference%20Period>
  n4sch:HAS_PROPERTY <neo4j://graph.schema#Property/Adverse%20Events%20End%20Relative%20to%20Reference%20Period/--ENRF> .

<neo4j://graph.schema#Metadata/mdr3_2/Source%20Data%20Column/AE/AEENRF> a <neo4j://graph.schema#Source%20Data%20Column>;
  n4sch:_domain_ "AE";
  n4sch:Core "Permissible";
  n4sch:_columnname_ "AEENRF";
  n4sch:MAPS_TO_PROPERTY <neo4j://graph.schema#Property/Adverse%20Events%20End%20Relative%20to%20Reference%20Period/--ENRF>;
  n4sch:Order "51"^^<http://www.w3.org/2001/XMLSchema#long> .

<neo4j://graph.schema#Metadata/mdr3_2/Source%20Data%20Column/AE/AEENRTPT> a <neo4j://graph.schema#Source%20Data%20Column>;
  n4sch:_domain_ "AE";
  n4sch:Order "52"^^<http://www.w3.org/2001/XMLSchema#long>;
  n4sch:_columnname_ "AEENRTPT";
  n4sch:Core "Permissible";
  n4sch:MAPS_TO_PROPERTY <neo4j://graph.schema#Property/Adverse%20Events%20End%20Relative%20to%20Reference%20Time%20Point/--ENRTPT> .

<neo4j://graph.schema#Class/Adverse%20Events%20End%20Relative%20to%20Reference%20Time%20Point>
  n4sch:HAS_PROPERTY <neo4j://graph.schema#Property/Adverse%20Events%20End%20Relative%20to%20Reference%20Time%20Point/--ENRTPT> .

<neo4j://graph.schema#Class/Adverse%20Events%20End%20Reference%20Time%20Point> n4sch:HAS_PROPERTY
    <neo4j://graph.schema#Property/Adverse%20Events%20End%20Reference%20Time%20Point/--ENTPT> .

<neo4j://graph.schema#Metadata/mdr3_2/Source%20Data%20Column/AE/AEENTPT> a <neo4j://graph.schema#Source%20Data%20Column>;
  n4sch:Core "Permissible";
  n4sch:_domain_ "AE";
  n4sch:_columnname_ "AEENTPT";
  n4sch:MAPS_TO_PROPERTY <neo4j://graph.schema#Property/Adverse%20Events%20End%20Reference%20Time%20Point/--ENTPT>;
  n4sch:Order "53"^^<http://www.w3.org/2001/XMLSchema#long> .

<neo4j://graph.schema#Class/Demographics%20Identifiers> n4sch:HAS_PROPERTY <neo4j://graph.schema#Property/Demographics%20Identifiers/DOMAIN> .

<neo4j://graph.schema#Metadata/mdr3_2/Source%20Data%20Column/DM/DOMAIN> a <neo4j://graph.schema#Source%20Data%20Column>;
  n4sch:_domain_ "DM";
  n4sch:Order "2"^^<http://www.w3.org/2001/XMLSchema#long>;
  n4sch:_columnname_ "DOMAIN";
  n4sch:Core "Required";
  n4sch:MAPS_TO_PROPERTY <neo4j://graph.schema#Property/Demographics%20Identifiers/DOMAIN> .

<neo4j://graph.schema#Metadata/mdr3_2/Source%20Data%20Column/DM/RFSTDTC> a <neo4j://graph.schema#Source%20Data%20Column>;
  n4sch:MAPS_TO_PROPERTY <neo4j://graph.schema#Property/Subject%20Reference%20Start%20Date/Time/RFSTDTC>;
  n4sch:_columnname_ "RFSTDTC";
  n4sch:Core "Expected";
  n4sch:Order "5"^^<http://www.w3.org/2001/XMLSchema#long>;
  n4sch:_domain_ "DM" .

<neo4j://graph.schema#Class/Subject%20Reference%20Start%20Date/Time> n4sch:HAS_PROPERTY
    <neo4j://graph.schema#Property/Subject%20Reference%20Start%20Date/Time/RFSTDTC>;
  n4sch:SUBCLASS_OF <neo4j://graph.schema#Class/Date/Time> .

<neo4j://graph.schema#Metadata/mdr3_2/Source%20Data%20Column/DM/RFENDTC> a <neo4j://graph.schema#Source%20Data%20Column>;
  n4sch:Core "Expected";
  n4sch:Order "6"^^<http://www.w3.org/2001/XMLSchema#long>;
  n4sch:_columnname_ "RFENDTC";
  n4sch:_domain_ "DM";
  n4sch:MAPS_TO_PROPERTY <neo4j://graph.schema#Property/Subject%20Reference%20End%20Date/Time/RFENDTC> .

<neo4j://graph.schema#Class/Subject%20Reference%20End%20Date/Time> n4sch:HAS_PROPERTY
    <neo4j://graph.schema#Property/Subject%20Reference%20End%20Date/Time/RFENDTC>;
  n4sch:SUBCLASS_OF <neo4j://graph.schema#Class/Date/Time> .

<neo4j://graph.schema#Class/Date/Time%20of%20First%20Study%20Treatment> n4sch:HAS_PROPERTY
    <neo4j://graph.schema#Property/Date/Time%20of%20First%20Study%20Treatment/RFXSTDTC>;
  n4sch:SUBCLASS_OF <neo4j://graph.schema#Class/Date/Time> .

<neo4j://graph.schema#Metadata/mdr3_2/Source%20Data%20Column/DM/RFXSTDTC> a <neo4j://graph.schema#Source%20Data%20Column>;
  n4sch:Order "7"^^<http://www.w3.org/2001/XMLSchema#long>;
  n4sch:MAPS_TO_PROPERTY <neo4j://graph.schema#Property/Date/Time%20of%20First%20Study%20Treatment/RFXSTDTC>;
  n4sch:_domain_ "DM";
  n4sch:_columnname_ "RFXSTDTC";
  n4sch:Core "Expected" .

<neo4j://graph.schema#Metadata/mdr3_2/Source%20Data%20Column/DM/RFXENDTC> a <neo4j://graph.schema#Source%20Data%20Column>;
  n4sch:_domain_ "DM";
  n4sch:_columnname_ "RFXENDTC";
  n4sch:Order "8"^^<http://www.w3.org/2001/XMLSchema#long>;
  n4sch:MAPS_TO_PROPERTY <neo4j://graph.schema#Property/Date/Time%20of%20Last%20Study%20Treatment/RFXENDTC>;
  n4sch:Core "Expected" .

<neo4j://graph.schema#Class/Date/Time%20of%20Last%20Study%20Treatment> n4sch:HAS_PROPERTY
    <neo4j://graph.schema#Property/Date/Time%20of%20Last%20Study%20Treatment/RFXENDTC>;
  n4sch:SUBCLASS_OF <neo4j://graph.schema#Class/Date/Time> .

<neo4j://graph.schema#Metadata/mdr3_2/Source%20Data%20Column/DM/RFICDTC> a <neo4j://graph.schema#Source%20Data%20Column>;
  n4sch:MAPS_TO_PROPERTY <neo4j://graph.schema#Property/Date/Time%20of%20Informed%20Consent/RFICDTC>;
  n4sch:Order "9"^^<http://www.w3.org/2001/XMLSchema#long>;
  n4sch:Core "Expected";
  n4sch:_domain_ "DM";
  n4sch:_columnname_ "RFICDTC" .

<neo4j://graph.schema#Class/Date/Time%20of%20Informed%20Consent> n4sch:HAS_PROPERTY
    <neo4j://graph.schema#Property/Date/Time%20of%20Informed%20Consent/RFICDTC>;
  n4sch:SUBCLASS_OF <neo4j://graph.schema#Class/Date/Time> .

<neo4j://graph.schema#Class/Date/Time%20of%20End%20of%20Participation> n4sch:HAS_PROPERTY
    <neo4j://graph.schema#Property/Date/Time%20of%20End%20of%20Participation/RFPENDTC>;
  n4sch:SUBCLASS_OF <neo4j://graph.schema#Class/Date/Time> .

<neo4j://graph.schema#Metadata/mdr3_2/Source%20Data%20Column/DM/RFPENDTC> a <neo4j://graph.schema#Source%20Data%20Column>;
  n4sch:Core "Expected";
  n4sch:Order "10"^^<http://www.w3.org/2001/XMLSchema#long>;
  n4sch:_columnname_ "RFPENDTC";
  n4sch:MAPS_TO_PROPERTY <neo4j://graph.schema#Property/Date/Time%20of%20End%20of%20Participation/RFPENDTC>;
  n4sch:_domain_ "DM" .

<neo4j://graph.schema#Metadata/mdr3_2/Source%20Data%20Column/DM/DTHDTC> a <neo4j://graph.schema#Source%20Data%20Column>;
  n4sch:Order "11"^^<http://www.w3.org/2001/XMLSchema#long>;
  n4sch:Core "Expected";
  n4sch:_columnname_ "DTHDTC";
  n4sch:MAPS_TO_PROPERTY <neo4j://graph.schema#Property/Date/Time%20of%20Death/DTHDTC>;
  n4sch:_domain_ "DM" .

<neo4j://graph.schema#Class/Date/Time%20of%20Death> n4sch:HAS_PROPERTY <neo4j://graph.schema#Property/Date/Time%20of%20Death/DTHDTC>;
  n4sch:SUBCLASS_OF <neo4j://graph.schema#Class/Date/Time> .

<neo4j://graph.schema#Metadata/mdr3_2/Source%20Data%20Column/DM/DTHFL> a <neo4j://graph.schema#Source%20Data%20Column>;
  n4sch:_columnname_ "DTHFL";
  n4sch:_domain_ "DM";
  n4sch:Order "12"^^<http://www.w3.org/2001/XMLSchema#long>;
  n4sch:MAPS_TO_PROPERTY <neo4j://graph.schema#Property/Subject%20Death%20Flag/DTHFL>;
  n4sch:Core "Expected" .

<neo4j://graph.schema#Class/Subject%20Death%20Flag> n4sch:HAS_PROPERTY <neo4j://graph.schema#Property/Subject%20Death%20Flag/DTHFL> .

<neo4j://graph.schema#Class/Study%20Site%20Identifier> n4sch:HAS_PROPERTY <neo4j://graph.schema#Property/Study%20Site%20Identifier/SITEID> .

<neo4j://graph.schema#Metadata/mdr3_2/Source%20Data%20Column/DM/SITEID> a <neo4j://graph.schema#Source%20Data%20Column>;
  n4sch:Core "Required";
  n4sch:_columnname_ "SITEID";
  n4sch:_domain_ "DM";
  n4sch:Order "13"^^<http://www.w3.org/2001/XMLSchema#long>;
  n4sch:MAPS_TO_PROPERTY <neo4j://graph.schema#Property/Study%20Site%20Identifier/SITEID> .

<neo4j://graph.schema#Metadata/mdr3_2/Source%20Data%20Column/DM/INVID> a <neo4j://graph.schema#Source%20Data%20Column>;
  n4sch:_columnname_ "INVID";
  n4sch:Core "Permissible";
  n4sch:MAPS_TO_PROPERTY <neo4j://graph.schema#Property/Investigator%20Identifier/INVID>;
  n4sch:Order "14"^^<http://www.w3.org/2001/XMLSchema#long>;
  n4sch:_domain_ "DM" .

<neo4j://graph.schema#Class/Investigator%20Identifier> n4sch:HAS_PROPERTY <neo4j://graph.schema#Property/Investigator%20Identifier/INVID> .

<neo4j://graph.schema#Metadata/mdr3_2/Source%20Data%20Column/DM/INVNAM> a <neo4j://graph.schema#Source%20Data%20Column>;
  n4sch:_domain_ "DM";
  n4sch:_columnname_ "INVNAM";
  n4sch:Order "15"^^<http://www.w3.org/2001/XMLSchema#long>;
  n4sch:Core "Permissible";
  n4sch:MAPS_TO_PROPERTY <neo4j://graph.schema#Property/Investigator%20Name/INVNAM> .

<neo4j://graph.schema#Class/Investigator%20Name> n4sch:HAS_PROPERTY <neo4j://graph.schema#Property/Investigator%20Name/INVNAM> .

<neo4j://graph.schema#Metadata/mdr3_2/Source%20Data%20Column/DM/BRTHDTC> a <neo4j://graph.schema#Source%20Data%20Column>;
  n4sch:Core "Permissible";
  n4sch:Order "16"^^<http://www.w3.org/2001/XMLSchema#long>;
  n4sch:_columnname_ "BRTHDTC";
  n4sch:_domain_ "DM";
  n4sch:MAPS_TO_PROPERTY <neo4j://graph.schema#Property/Date/Time%20of%20Birth/BRTHDTC> .

<neo4j://graph.schema#Class/Date/Time%20of%20Birth> n4sch:HAS_PROPERTY <neo4j://graph.schema#Property/Date/Time%20of%20Birth/BRTHDTC>;
  n4sch:SUBCLASS_OF <neo4j://graph.schema#Class/Date/Time> .

<neo4j://graph.schema#Class/Age> n4sch:HAS_PROPERTY <neo4j://graph.schema#Property/Age/AGE> .

<neo4j://graph.schema#Metadata/mdr3_2/Source%20Data%20Column/DM/AGE> a <neo4j://graph.schema#Source%20Data%20Column>;
  n4sch:Order "17"^^<http://www.w3.org/2001/XMLSchema#long>;
  n4sch:MAPS_TO_PROPERTY <neo4j://graph.schema#Property/Age/AGE>;
  n4sch:_domain_ "DM";
  n4sch:Core "Expected";
  n4sch:_columnname_ "AGE" .

<neo4j://graph.schema#Metadata/mdr3_2/Source%20Data%20Column/DM/AGEU> a <neo4j://graph.schema#Source%20Data%20Column>;
  n4sch:_domain_ "DM";
  n4sch:_columnname_ "AGEU";
  n4sch:MAPS_TO_PROPERTY <neo4j://graph.schema#Property/Age%20Units/AGEU>;
  n4sch:Core "Expected";
  n4sch:Order "18"^^<http://www.w3.org/2001/XMLSchema#long> .

<neo4j://graph.schema#Class/Age%20Units> n4sch:HAS_PROPERTY <neo4j://graph.schema#Property/Age%20Units/AGEU> .

<neo4j://graph.schema#Metadata/mdr3_2/Source%20Data%20Column/DM/SEX> a <neo4j://graph.schema#Source%20Data%20Column>;
  n4sch:_domain_ "DM";
  n4sch:Core "Required";
  n4sch:MAPS_TO_PROPERTY <neo4j://graph.schema#Property/Sex/SEX>;
  n4sch:Order "19"^^<http://www.w3.org/2001/XMLSchema#long>;
  n4sch:_columnname_ "SEX" .

<neo4j://graph.schema#Class/Sex> n4sch:HAS_PROPERTY <neo4j://graph.schema#Property/Sex/SEX> .

<neo4j://graph.schema#Metadata/mdr3_2/Source%20Data%20Column/DM/RACE> a <neo4j://graph.schema#Source%20Data%20Column>;
  n4sch:_columnname_ "RACE";
  n4sch:Order "20"^^<http://www.w3.org/2001/XMLSchema#long>;
  n4sch:Core "Expected";
  n4sch:_domain_ "DM";
  n4sch:MAPS_TO_PROPERTY <neo4j://graph.schema#Property/Race/RACE> .

<neo4j://graph.schema#Class/Race> n4sch:HAS_PROPERTY <neo4j://graph.schema#Property/Race/RACE> .

<neo4j://graph.schema#Class/Ethnicity> n4sch:HAS_PROPERTY <neo4j://graph.schema#Property/Ethnicity/ETHNIC> .

<neo4j://graph.schema#Metadata/mdr3_2/Source%20Data%20Column/DM/ETHNIC> a <neo4j://graph.schema#Source%20Data%20Column>;
  n4sch:MAPS_TO_PROPERTY <neo4j://graph.schema#Property/Ethnicity/ETHNIC>;
  n4sch:Order "21"^^<http://www.w3.org/2001/XMLSchema#long>;
  n4sch:_columnname_ "ETHNIC";
  n4sch:_domain_ "DM";
  n4sch:Core "Permissible" .

<neo4j://graph.schema#Metadata/mdr3_2/Source%20Data%20Column/DM/ARMCD> a <neo4j://graph.schema#Source%20Data%20Column>;
  n4sch:_columnname_ "ARMCD";
  n4sch:MAPS_TO_PROPERTY <neo4j://graph.schema#Property/Planned%20Arm%20Code/ARMCD>;
  n4sch:_domain_ "DM";
  n4sch:Core "Required";
  n4sch:Order "22"^^<http://www.w3.org/2001/XMLSchema#long> .

<neo4j://graph.schema#Class/Planned%20Arm%20Code> n4sch:HAS_PROPERTY <neo4j://graph.schema#Property/Planned%20Arm%20Code/ARMCD> .

<neo4j://graph.schema#Metadata/mdr3_2/Source%20Data%20Column/DM/ARM> a <neo4j://graph.schema#Source%20Data%20Column>;
  n4sch:Order "23"^^<http://www.w3.org/2001/XMLSchema#long>;
  n4sch:MAPS_TO_PROPERTY <neo4j://graph.schema#Property/Description%20of%20Planned%20Arm/ARM>;
  n4sch:Core "Required";
  n4sch:_columnname_ "ARM";
  n4sch:_domain_ "DM" .

<neo4j://graph.schema#Class/Description%20of%20Planned%20Arm> n4sch:HAS_PROPERTY <neo4j://graph.schema#Property/Description%20of%20Planned%20Arm/ARM> .

<neo4j://graph.schema#Metadata/mdr3_2/Source%20Data%20Column/DM/ACTARMCD> a <neo4j://graph.schema#Source%20Data%20Column>;
  n4sch:_columnname_ "ACTARMCD";
  n4sch:_domain_ "DM";
  n4sch:Order "24"^^<http://www.w3.org/2001/XMLSchema#long>;
  n4sch:MAPS_TO_PROPERTY <neo4j://graph.schema#Property/Actual%20Arm%20Code/ACTARMCD>;
  n4sch:Core "Required" .

<neo4j://graph.schema#Class/Actual%20Arm%20Code> n4sch:HAS_PROPERTY <neo4j://graph.schema#Property/Actual%20Arm%20Code/ACTARMCD> .

<neo4j://graph.schema#Class/Description%20of%20Actual%20Arm> n4sch:HAS_PROPERTY <neo4j://graph.schema#Property/Description%20of%20Actual%20Arm/ACTARM> .

<neo4j://graph.schema#Metadata/mdr3_2/Source%20Data%20Column/DM/ACTARM> a <neo4j://graph.schema#Source%20Data%20Column>;
  n4sch:_columnname_ "ACTARM";
  n4sch:_domain_ "DM";
  n4sch:MAPS_TO_PROPERTY <neo4j://graph.schema#Property/Description%20of%20Actual%20Arm/ACTARM>;
  n4sch:Order "25"^^<http://www.w3.org/2001/XMLSchema#long>;
  n4sch:Core "Required" .

<neo4j://graph.schema#Metadata/mdr3_2/Source%20Data%20Column/DM/COUNTRY> a <neo4j://graph.schema#Source%20Data%20Column>;
  n4sch:_domain_ "DM";
  n4sch:_columnname_ "COUNTRY";
  n4sch:Order "26"^^<http://www.w3.org/2001/XMLSchema#long>;
  n4sch:Core "Required";
  n4sch:MAPS_TO_PROPERTY <neo4j://graph.schema#Property/Country/COUNTRY> .

<neo4j://graph.schema#Class/Country> n4sch:HAS_PROPERTY <neo4j://graph.schema#Property/Country/COUNTRY> .

<neo4j://graph.schema#Class/Demographics%20Date/Time%20of%20Collection> n4sch:HAS_PROPERTY
    <neo4j://graph.schema#Property/Demographics%20Date/Time%20of%20Collection/--DTC>;
  n4sch:SUBCLASS_OF <neo4j://graph.schema#Class/Date/Time%20of%20Collection> .

<neo4j://graph.schema#Metadata/mdr3_2/Source%20Data%20Column/DM/DMDTC> a <neo4j://graph.schema#Source%20Data%20Column>;
  n4sch:Order "27"^^<http://www.w3.org/2001/XMLSchema#long>;
  n4sch:Core "Permissible";
  n4sch:MAPS_TO_PROPERTY <neo4j://graph.schema#Property/Demographics%20Date/Time%20of%20Collection/--DTC>;
  n4sch:_columnname_ "DMDTC";
  n4sch:_domain_ "DM" .

<neo4j://graph.schema#Metadata/mdr3_2/Source%20Data%20Column/DM/DMDY> a <neo4j://graph.schema#Source%20Data%20Column>;
  n4sch:Order "28"^^<http://www.w3.org/2001/XMLSchema#long>;
  n4sch:Core "Permissible";
  n4sch:_columnname_ "DMDY";
  n4sch:_domain_ "DM";
  n4sch:MAPS_TO_PROPERTY <neo4j://graph.schema#Property/Study%20Day%20of%20Collection/--DY> .

<neo4j://graph.schema#Metadata/mdr3_2/Source%20Data%20Table/AE> n4sch:HAS_COLUMN <neo4j://graph.schema#Metadata/mdr3_2/Source%20Data%20Column/AE/AEACNOTH>,
    <neo4j://graph.schema#Metadata/mdr3_2/Source%20Data%20Column/AE/AESCAT>, <neo4j://graph.schema#Metadata/mdr3_2/Source%20Data%20Column/AE/AEOUT>,
    <neo4j://graph.schema#Metadata/mdr3_2/Source%20Data%20Column/AE/AESPID>, <neo4j://graph.schema#Metadata/mdr3_2/Source%20Data%20Column/AE/AESTDTC>,
    <neo4j://graph.schema#Metadata/mdr3_2/Source%20Data%20Column/AE/AEBDSYCD>, <neo4j://graph.schema#Metadata/mdr3_2/Source%20Data%20Column/AE/AELLT>,
    <neo4j://graph.schema#Metadata/mdr3_2/Source%20Data%20Column/AE/AETOXGR>, <neo4j://graph.schema#Metadata/mdr3_2/Source%20Data%20Column/AE/AEENRF>,
    <neo4j://graph.schema#Metadata/mdr3_2/Source%20Data%20Column/AE/AEREFID>, <neo4j://graph.schema#Metadata/mdr3_2/Source%20Data%20Column/AE/AETERM>,
    <neo4j://graph.schema#Metadata/mdr3_2/Source%20Data%20Column/AE/AESEQ>, <neo4j://graph.schema#Metadata/mdr3_2/Source%20Data%20Column/AE/AEACN>,
    <neo4j://graph.schema#Metadata/mdr3_2/Source%20Data%20Column/AE/AEPATT>, <neo4j://graph.schema#Metadata/mdr3_2/Source%20Data%20Column/AE/AESMIE>,
    <neo4j://graph.schema#Metadata/mdr3_2/Source%20Data%20Column/AE/AEENDTC>, <neo4j://graph.schema#Metadata/mdr3_2/Source%20Data%20Column/AE/AESHOSP>,
    <neo4j://graph.schema#Metadata/mdr3_2/Source%20Data%20Column/AE/AEHLT>, <neo4j://graph.schema#Metadata/mdr3_2/Source%20Data%20Column/AE/AEENTPT>,
    <neo4j://graph.schema#Metadata/mdr3_2/Source%20Data%20Column/AE/AEGRPID>, <neo4j://graph.schema#Metadata/mdr3_2/Source%20Data%20Column/AE/DOMAIN>,
    <neo4j://graph.schema#Metadata/mdr3_2/Source%20Data%20Column/AE/EPOCH>, <neo4j://graph.schema#Metadata/mdr3_2/Source%20Data%20Column/AE/AEMODIFY>,
    <neo4j://graph.schema#Metadata/mdr3_2/Source%20Data%20Column/AE/AESOC>, <neo4j://graph.schema#Metadata/mdr3_2/Source%20Data%20Column/AE/AESER>,
    <neo4j://graph.schema#Metadata/mdr3_2/Source%20Data%20Column/AE/AELOC>, <neo4j://graph.schema#Metadata/mdr3_2/Source%20Data%20Column/AE/STUDYID>,
    <neo4j://graph.schema#Metadata/mdr3_2/Source%20Data%20Column/AE/AEHLTCD>, <neo4j://graph.schema#Metadata/mdr3_2/Source%20Data%20Column/AE/AEENRTPT>,
    <neo4j://graph.schema#Metadata/mdr3_2/Source%20Data%20Column/AE/AESDISAB>, <neo4j://graph.schema#Metadata/mdr3_2/Source%20Data%20Column/AE/USUBJID>,
    <neo4j://graph.schema#Metadata/mdr3_2/Source%20Data%20Column/AE/AESEV>, <neo4j://graph.schema#Metadata/mdr3_2/Source%20Data%20Column/AE/AESOD>,
    <neo4j://graph.schema#Metadata/mdr3_2/Source%20Data%20Column/AE/AESOCCD>, <neo4j://graph.schema#Metadata/mdr3_2/Source%20Data%20Column/AE/AEENDY>,
    <neo4j://graph.schema#Metadata/mdr3_2/Source%20Data%20Column/AE/AEREL>, <neo4j://graph.schema#Metadata/mdr3_2/Source%20Data%20Column/AE/SUBJID>,
    <neo4j://graph.schema#Metadata/mdr3_2/Source%20Data%20Column/AE/AECONTRT>, <neo4j://graph.schema#Metadata/mdr3_2/Source%20Data%20Column/AE/AESTDY>,
    <neo4j://graph.schema#Metadata/mdr3_2/Source%20Data%20Column/AE/AESLIFE>, <neo4j://graph.schema#Metadata/mdr3_2/Source%20Data%20Column/AE/AELLTCD>,
    <neo4j://graph.schema#Metadata/mdr3_2/Source%20Data%20Column/AE/AEDUR>, <neo4j://graph.schema#Metadata/mdr3_2/Source%20Data%20Column/AE/AEHLGT>,
    <neo4j://graph.schema#Metadata/mdr3_2/Source%20Data%20Column/AE/AEDECOD>, <neo4j://graph.schema#Metadata/mdr3_2/Source%20Data%20Column/AE/AEPTCD>,
    <neo4j://graph.schema#Metadata/mdr3_2/Source%20Data%20Column/AE/AEBODSYS>, <neo4j://graph.schema#Metadata/mdr3_2/Source%20Data%20Column/AE/AERELNST>,
    <neo4j://graph.schema#Metadata/mdr3_2/Source%20Data%20Column/AE/AECAT>, <neo4j://graph.schema#Metadata/mdr3_2/Source%20Data%20Column/AE/AEPRESP>,
    <neo4j://graph.schema#Metadata/mdr3_2/Source%20Data%20Column/AE/AEHLGTCD>, <neo4j://graph.schema#Metadata/mdr3_2/Source%20Data%20Column/AE/AESCAN>,
    <neo4j://graph.schema#Metadata/mdr3_2/Source%20Data%20Column/AE/AESDTH>, <neo4j://graph.schema#Metadata/mdr3_2/Source%20Data%20Column/AE/AESCONG>;
  n4sch:MAPS_TO_CLASS <neo4j://graph.schema#Class/Adverse%20Events> .

<neo4j://graph.schema#Metadata/mdr3_2/Data%20Extraction%20Standard/MDR3_2> n4sch:HAS_TABLE
    <neo4j://graph.schema#Metadata/mdr3_2/Source%20Data%20Table/AE>, <neo4j://graph.schema#Metadata/mdr3_2/Source%20Data%20Table/DM> .

<neo4j://graph.schema#Metadata/mdr3_2/Source%20Data%20Table/DM> n4sch:MAPS_TO_CLASS
    <neo4j://graph.schema#Class/Demographics>;
  n4sch:HAS_COLUMN <neo4j://graph.schema#Metadata/mdr3_2/Source%20Data%20Column/DM/DOMAIN>,
    <neo4j://graph.schema#Metadata/mdr3_2/Source%20Data%20Column/DM/ACTARM>, <neo4j://graph.schema#Metadata/mdr3_2/Source%20Data%20Column/DM/DTHDTC>,
    <neo4j://graph.schema#Metadata/mdr3_2/Source%20Data%20Column/DM/DMDTC>, <neo4j://graph.schema#Metadata/mdr3_2/Source%20Data%20Column/DM/RFPENDTC>,
    <neo4j://graph.schema#Metadata/mdr3_2/Source%20Data%20Column/DM/ACTARMCD>, <neo4j://graph.schema#Metadata/mdr3_2/Source%20Data%20Column/DM/SUBJID>,
    <neo4j://graph.schema#Metadata/mdr3_2/Source%20Data%20Column/DM/RFSTDTC>, <neo4j://graph.schema#Metadata/mdr3_2/Source%20Data%20Column/DM/RFENDTC>,
    <neo4j://graph.schema#Metadata/mdr3_2/Source%20Data%20Column/DM/BRTHDTC>, <neo4j://graph.schema#Metadata/mdr3_2/Source%20Data%20Column/DM/SEX>,
    <neo4j://graph.schema#Metadata/mdr3_2/Source%20Data%20Column/DM/ARM>, <neo4j://graph.schema#Metadata/mdr3_2/Source%20Data%20Column/DM/INVID>,
    <neo4j://graph.schema#Metadata/mdr3_2/Source%20Data%20Column/DM/STUDYID>, <neo4j://graph.schema#Metadata/mdr3_2/Source%20Data%20Column/DM/ARMCD>,
    <neo4j://graph.schema#Metadata/mdr3_2/Source%20Data%20Column/DM/COUNTRY>, <neo4j://graph.schema#Metadata/mdr3_2/Source%20Data%20Column/DM/INVNAM>,
    <neo4j://graph.schema#Metadata/mdr3_2/Source%20Data%20Column/DM/RFXSTDTC>, <neo4j://graph.schema#Metadata/mdr3_2/Source%20Data%20Column/DM/ETHNIC>,
    <neo4j://graph.schema#Metadata/mdr3_2/Source%20Data%20Column/DM/DTHFL>, <neo4j://graph.schema#Metadata/mdr3_2/Source%20Data%20Column/DM/DMDY>,
    <neo4j://graph.schema#Metadata/mdr3_2/Source%20Data%20Column/DM/RFXENDTC>, <neo4j://graph.schema#Metadata/mdr3_2/Source%20Data%20Column/DM/SITEID>,
    <neo4j://graph.schema#Metadata/mdr3_2/Source%20Data%20Column/DM/AGE>, <neo4j://graph.schema#Metadata/mdr3_2/Source%20Data%20Column/DM/RFICDTC>,
    <neo4j://graph.schema#Metadata/mdr3_2/Source%20Data%20Column/DM/RACE>, <neo4j://graph.schema#Metadata/mdr3_2/Source%20Data%20Column/DM/AGEU>,
    <neo4j://graph.schema#Metadata/mdr3_2/Source%20Data%20Column/DM/USUBJID> .

<neo4j://graph.schema#Property/Start%20Date/Time%20of%20Observation/--STDTC> a n4sch:Property;
  n4sch:label "--STDTC";
  n4sch:Class.label "Start Date/Time of Observation" .

<neo4j://graph.schema#Class/Start%20Date/Time%20of%20Observation> n4sch:HAS_PROPERTY
    <neo4j://graph.schema#Property/Start%20Date/Time%20of%20Observation/--STDTC>;
  n4sch:SUBCLASS_OF <neo4j://graph.schema#Class/Date/Time> .

<neo4j://graph.schema#Property/Date/Time/BRTHDTC> a n4sch:Property;
  n4sch:Class.label "Date/Time";
  n4sch:label "BRTHDTC" .

<neo4j://graph.schema#Class/Date/Time> n4sch:HAS_PROPERTY <neo4j://graph.schema#Property/Date/Time/BRTHDTC>,
    <neo4j://graph.schema#Property/Date/Time/RFXSTDTC>, <neo4j://graph.schema#Property/Date/Time/--DTC>,
    <neo4j://graph.schema#Property/Date/Time/RFSTDTC>, <neo4j://graph.schema#Property/Date/Time/DTHDTC>,
    <neo4j://graph.schema#Property/Date/Time/RFENDTC>, <neo4j://graph.schema#Property/Date/Time/RFICDTC>,
    <neo4j://graph.schema#Property/Date/Time/RFXENDTC>, <neo4j://graph.schema#Property/Date/Time/--ENDTC>,
    <neo4j://graph.schema#Property/Date/Time/RFPENDTC>, <neo4j://graph.schema#Property/Date/Time/--STDTC>;
  n4sch:SUBCLASS_OF <neo4j://graph.schema#Class/Timing> .

<neo4j://graph.schema#Property/Date/Time/RFXSTDTC> a n4sch:Property;
  n4sch:label "RFXSTDTC";
  n4sch:Class.label "Date/Time" .

<neo4j://graph.schema#Property/Date/Time/--DTC> a n4sch:Property;
  n4sch:Class.label "Date/Time";
  n4sch:label "--DTC" .

<neo4j://graph.schema#Property/Date/Time/RFSTDTC> a n4sch:Property;
  n4sch:Class.label "Date/Time";
  n4sch:label "RFSTDTC" .

<neo4j://graph.schema#Property/Date/Time/DTHDTC> a n4sch:Property;
  n4sch:Class.label "Date/Time";
  n4sch:label "DTHDTC" .

<neo4j://graph.schema#Class/Date/Time%20of%20Collection> n4sch:SUBCLASS_OF <neo4j://graph.schema#Class/Date/Time>;
  n4sch:HAS_PROPERTY <neo4j://graph.schema#Property/Date/Time%20of%20Collection/--DTC> .

<neo4j://graph.schema#Property/Date/Time/RFENDTC> a n4sch:Property;
  n4sch:Class.label "Date/Time";
  n4sch:label "RFENDTC" .

<neo4j://graph.schema#Property/Date/Time/RFICDTC> a n4sch:Property;
  n4sch:label "RFICDTC";
  n4sch:Class.label "Date/Time" .

<neo4j://graph.schema#Class/Timing> a n4sch:Class;
  n4sch:label "Timing";
  n4sch:CoreClass false;
  n4sch:from_domains "AE,DM";
  n4sch:HAS_PROPERTY <neo4j://graph.schema#Property/Timing/--STDTC>, <neo4j://graph.schema#Property/Timing/--DTC>,
    <neo4j://graph.schema#Property/Timing/RFENDTC>, <neo4j://graph.schema#Property/Timing/RFSTDTC> .

<neo4j://graph.schema#Class/End%20Date/Time%20of%20Observation> n4sch:SUBCLASS_OF
    <neo4j://graph.schema#Class/Date/Time>;
  n4sch:HAS_PROPERTY <neo4j://graph.schema#Property/End%20Date/Time%20of%20Observation/--ENDTC> .

<neo4j://graph.schema#Property/Date/Time/RFXENDTC> a n4sch:Property;
  n4sch:label "RFXENDTC";
  n4sch:Class.label "Date/Time" .

<neo4j://graph.schema#Property/Date/Time/--ENDTC> a n4sch:Property;
  n4sch:label "--ENDTC";
  n4sch:Class.label "Date/Time" .

<neo4j://graph.schema#Property/Date/Time/RFPENDTC> a n4sch:Property;
  n4sch:Class.label "Date/Time";
  n4sch:label "RFPENDTC" .

<neo4j://graph.schema#Property/Date/Time/--STDTC> a n4sch:Property;
  n4sch:Class.label "Date/Time";
  n4sch:label "--STDTC" .

<neo4j://graph.schema#Property/End%20Date/Time%20of%20Observation/--ENDTC> a n4sch:Property;
  n4sch:Class.label "End Date/Time of Observation";
  n4sch:label "--ENDTC" .

<neo4j://graph.schema#Property/Study%20Day%20of%20Start%20of%20Observation/--STDY>
  a n4sch:Property;
  n4sch:label "--STDY";
  n4sch:Class.label "Study Day of Start of Observation" .

<neo4j://graph.schema#Class/Study%20Day%20of%20Start%20of%20Observation> n4sch:HAS_PROPERTY
    <neo4j://graph.schema#Property/Study%20Day%20of%20Start%20of%20Observation/--STDY>;
  n4sch:SUBCLASS_OF <neo4j://graph.schema#Class/Study%20Day> .

<neo4j://graph.schema#Class/Study%20Day> a n4sch:Class;
  n4sch:label "Study Day";
  n4sch:CoreClass false;
  n4sch:from_domains "AE,DM";
  n4sch:HAS_PROPERTY <neo4j://graph.schema#Property/Study%20Day/--DY>, <neo4j://graph.schema#Property/Study%20Day/--ENDY>,
    <neo4j://graph.schema#Property/Study%20Day/--STDY>;
  n4sch:SUBCLASS_OF <neo4j://graph.schema#Class/Timing> .

<neo4j://graph.schema#Property/Study%20Day/--DY> a n4sch:Property;
  n4sch:label "--DY";
  n4sch:Class.label "Study Day" .

<neo4j://graph.schema#Property/Study%20Day/--ENDY> a n4sch:Property;
  n4sch:label "--ENDY";
  n4sch:Class.label "Study Day" .

<neo4j://graph.schema#Class/Study%20Day%20of%20End%20of%20Observation> n4sch:SUBCLASS_OF
    <neo4j://graph.schema#Class/Study%20Day>;
  n4sch:HAS_PROPERTY <neo4j://graph.schema#Property/Study%20Day%20of%20End%20of%20Observation/--ENDY> .

<neo4j://graph.schema#Property/Study%20Day/--STDY> a n4sch:Property;
  n4sch:label "--STDY";
  n4sch:Class.label "Study Day" .

<neo4j://graph.schema#Class/Study%20Day%20of%20Visit/Collection/Exam> n4sch:SUBCLASS_OF
    <neo4j://graph.schema#Class/Study%20Day>;
  n4sch:HAS_PROPERTY <neo4j://graph.schema#Property/Study%20Day%20of%20Visit/Collection/Exam/--DY> .

<neo4j://graph.schema#Property/Study%20Day%20of%20End%20of%20Observation/--ENDY> a
    n4sch:Property;
  n4sch:label "--ENDY";
  n4sch:Class.label "Study Day of End of Observation" .

<neo4j://graph.schema#Class/Demographics> n4sch:CLASS_RELATES_TO <neo4j://graph.schema#Class/Date/Time%20of%20Collection>,
    <neo4j://graph.schema#Class/Study%20Day%20of%20Visit/Collection/Exam> .

<neo4j://graph.schema#Property/Date/Time%20of%20Collection/--DTC> a n4sch:Property;
  n4sch:Class.label "Date/Time of Collection";
  n4sch:label "--DTC" .

<neo4j://graph.schema#Property/Study%20Day%20of%20Visit/Collection/Exam/--DY> a n4sch:Property;
  n4sch:label "--DY";
  n4sch:Class.label "Study Day of Visit/Collection/Exam" .

<<<neo4j://graph.schema#Class/Reported%20Term> n4sch:CLASS_RELATES_TO <neo4j://graph.schema#Class/Category>>>
  n4sch:relationship_type "IS_A" .

<neo4j://graph.schema#Class/Reported%20Term> n4sch:CLASS_RELATES_TO <neo4j://graph.schema#Class/Category>,
    <neo4j://graph.schema#Class/Subcategory>;
  n4sch:HAS_PROPERTY <neo4j://graph.schema#Property/Reported%20Term/--TERM> .

<<<neo4j://graph.schema#Class/Reported%20Term> n4sch:CLASS_RELATES_TO <neo4j://graph.schema#Class/Subcategory>>>
  n4sch:relationship_type "IS_A" .

<neo4j://graph.schema#Class/High%20Level%20Term> n4sch:CLASS_RELATES_TO <neo4j://graph.schema#Class/Reported%20Term>;
  n4sch:HAS_PROPERTY <neo4j://graph.schema#Property/High%20Level%20Term/--HLT> .

<<<neo4j://graph.schema#Class/High%20Level%20Term> n4sch:CLASS_RELATES_TO <neo4j://graph.schema#Class/Reported%20Term>>>
  n4sch:relationship_type "QUALIFIES" .

<neo4j://graph.schema#Class/Dictionary-Derived%20Term> n4sch:CLASS_RELATES_TO <neo4j://graph.schema#Class/Reported%20Term>,
    <neo4j://graph.schema#Class/Category>, <neo4j://graph.schema#Class/Subcategory>;
  n4sch:HAS_PROPERTY <neo4j://graph.schema#Property/Dictionary-Derived%20Term/--DECOD> .

<<<neo4j://graph.schema#Class/Dictionary-Derived%20Term> n4sch:CLASS_RELATES_TO <neo4j://graph.schema#Class/Reported%20Term>>>
  n4sch:relationship_type "QUALIFIES" .

<<<neo4j://graph.schema#Class/Lowest%20Level%20Term> n4sch:CLASS_RELATES_TO <neo4j://graph.schema#Class/Reported%20Term>>>
  n4sch:relationship_type "QUALIFIES" .

<neo4j://graph.schema#Class/Lowest%20Level%20Term> n4sch:CLASS_RELATES_TO <neo4j://graph.schema#Class/Reported%20Term>;
  n4sch:HAS_PROPERTY <neo4j://graph.schema#Property/Lowest%20Level%20Term/--LLT> .

<neo4j://graph.schema#Class/Modified%20Reported%20Term> n4sch:CLASS_RELATES_TO <neo4j://graph.schema#Class/Reported%20Term>;
  n4sch:HAS_PROPERTY <neo4j://graph.schema#Property/Modified%20Reported%20Term/--MODIFY> .

<<<neo4j://graph.schema#Class/Modified%20Reported%20Term> n4sch:CLASS_RELATES_TO <neo4j://graph.schema#Class/Reported%20Term>>>
  n4sch:relationship_type "QUALIFIES" .

<<<neo4j://graph.schema#Class/Primary%20System%20Organ%20Class> n4sch:CLASS_RELATES_TO <neo4j://graph.schema#Class/Reported%20Term>>>
  n4sch:relationship_type "QUALIFIES" .

<neo4j://graph.schema#Class/Primary%20System%20Organ%20Class> n4sch:CLASS_RELATES_TO
    <neo4j://graph.schema#Class/Reported%20Term>;
  n4sch:HAS_PROPERTY <neo4j://graph.schema#Property/Primary%20System%20Organ%20Class/--SOC> .

<<<neo4j://graph.schema#Class/High%20Level%20Group%20Term> n4sch:CLASS_RELATES_TO <neo4j://graph.schema#Class/Reported%20Term>>>
  n4sch:relationship_type "QUALIFIES" .

<neo4j://graph.schema#Class/High%20Level%20Group%20Term> n4sch:CLASS_RELATES_TO <neo4j://graph.schema#Class/Reported%20Term>;
  n4sch:HAS_PROPERTY <neo4j://graph.schema#Property/High%20Level%20Group%20Term/--HLGT> .

<<<neo4j://graph.schema#Class/Pre-specified> n4sch:CLASS_RELATES_TO <neo4j://graph.schema#Class/Reported%20Term>>>
  n4sch:relationship_type "QUALIFIES" .

<neo4j://graph.schema#Class/Pre-specified> n4sch:CLASS_RELATES_TO <neo4j://graph.schema#Class/Reported%20Term>;
  n4sch:HAS_PROPERTY <neo4j://graph.schema#Property/Pre-specified/--PRESP> .

<neo4j://graph.schema#Property/Reported%20Term/--TERM> a n4sch:Property;
  n4sch:Class.label "Reported Term";
  n4sch:label "--TERM" .

<neo4j://graph.schema#Property/Modified%20Reported%20Term/--MODIFY> a n4sch:Property;
  n4sch:label "--MODIFY";
  n4sch:Class.label "Modified Reported Term" .

<neo4j://graph.schema#Class/Lowest%20Level%20Term%20Code> n4sch:CLASS_RELATES_TO <neo4j://graph.schema#Class/Lowest%20Level%20Term>;
  n4sch:HAS_PROPERTY <neo4j://graph.schema#Property/Lowest%20Level%20Term%20Code/--LLTCD> .

<<<neo4j://graph.schema#Class/Lowest%20Level%20Term%20Code> n4sch:CLASS_RELATES_TO <neo4j://graph.schema#Class/Lowest%20Level%20Term>>>
  n4sch:relationship_type "QUALIFIES" .

<neo4j://graph.schema#Property/Lowest%20Level%20Term/--LLT> a n4sch:Property;
  n4sch:label "--LLT";
  n4sch:Class.label "Lowest Level Term" .

<neo4j://graph.schema#Property/Lowest%20Level%20Term%20Code/--LLTCD> a n4sch:Property;
  n4sch:Class.label "Lowest Level Term Code";
  n4sch:label "--LLTCD" .

<<<neo4j://graph.schema#Class/Dictionary-Derived%20Term> n4sch:CLASS_RELATES_TO <neo4j://graph.schema#Class/Category>>>
  n4sch:relationship_type "IS_A" .

<<<neo4j://graph.schema#Class/Dictionary-Derived%20Term> n4sch:CLASS_RELATES_TO <neo4j://graph.schema#Class/Subcategory>>>
  n4sch:relationship_type "IS_A" .

<neo4j://graph.schema#Class/Body%20System%20or%20Organ%20Class> n4sch:CLASS_RELATES_TO
    <neo4j://graph.schema#Class/Dictionary-Derived%20Term>;
  n4sch:HAS_PROPERTY <neo4j://graph.schema#Property/Body%20System%20or%20Organ%20Class/--BODSYS> .

<<<neo4j://graph.schema#Class/Body%20System%20or%20Organ%20Class> n4sch:CLASS_RELATES_TO <neo4j://graph.schema#Class/Dictionary-Derived%20Term>>>
  n4sch:relationship_type "QUALIFIES" .

<<<neo4j://graph.schema#Class/Preferred%20Term%20Code> n4sch:CLASS_RELATES_TO <neo4j://graph.schema#Class/Dictionary-Derived%20Term>>>
  n4sch:relationship_type "QUALIFIES" .

<neo4j://graph.schema#Class/Preferred%20Term%20Code> n4sch:CLASS_RELATES_TO <neo4j://graph.schema#Class/Dictionary-Derived%20Term>;
  n4sch:HAS_PROPERTY <neo4j://graph.schema#Property/Preferred%20Term%20Code/--PTCD> .

<neo4j://graph.schema#Property/Dictionary-Derived%20Term/--DECOD> a n4sch:Property;
  n4sch:label "--DECOD";
  n4sch:Class.label "Dictionary-Derived Term" .

<neo4j://graph.schema#Property/Preferred%20Term%20Code/--PTCD> a n4sch:Property;
  n4sch:Class.label "Preferred Term Code";
  n4sch:label "--PTCD" .

<neo4j://graph.schema#Class/High%20Level%20Term%20Code> n4sch:CLASS_RELATES_TO <neo4j://graph.schema#Class/High%20Level%20Term>;
  n4sch:HAS_PROPERTY <neo4j://graph.schema#Property/High%20Level%20Term%20Code/--HLTCD> .

<<<neo4j://graph.schema#Class/High%20Level%20Term%20Code> n4sch:CLASS_RELATES_TO <neo4j://graph.schema#Class/High%20Level%20Term>>>
  n4sch:relationship_type "QUALIFIES" .

<neo4j://graph.schema#Property/High%20Level%20Term/--HLT> a n4sch:Property;
  n4sch:label "--HLT";
  n4sch:Class.label "High Level Term" .

<neo4j://graph.schema#Property/High%20Level%20Term%20Code/--HLTCD> a n4sch:Property;
  n4sch:Class.label "High Level Term Code";
  n4sch:label "--HLTCD" .

<<<neo4j://graph.schema#Class/High%20Level%20Group%20Term%20Code> n4sch:CLASS_RELATES_TO <neo4j://graph.schema#Class/High%20Level%20Group%20Term>>>
  n4sch:relationship_type "QUALIFIES" .

<neo4j://graph.schema#Class/High%20Level%20Group%20Term%20Code> n4sch:CLASS_RELATES_TO
    <neo4j://graph.schema#Class/High%20Level%20Group%20Term>;
  n4sch:HAS_PROPERTY <neo4j://graph.schema#Property/High%20Level%20Group%20Term%20Code/--HLGTCD> .

<neo4j://graph.schema#Property/High%20Level%20Group%20Term/--HLGT> a n4sch:Property;
  n4sch:Class.label "High Level Group Term";
  n4sch:label "--HLGT" .

<neo4j://graph.schema#Property/High%20Level%20Group%20Term%20Code/--HLGTCD> a n4sch:Property;
  n4sch:Class.label "High Level Group Term Code";
  n4sch:label "--HLGTCD" .

<neo4j://graph.schema#Class/Category> n4sch:CLASS_RELATES_TO <neo4j://graph.schema#Class/Subcategory>;
  n4sch:HAS_PROPERTY <neo4j://graph.schema#Property/Category/--CAT> .

<<<neo4j://graph.schema#Class/Category> n4sch:CLASS_RELATES_TO <neo4j://graph.schema#Class/Subcategory>>>
  n4sch:relationship_type "HAS_SUBCATEGORY" .

<neo4j://graph.schema#Property/Category/--CAT> a n4sch:Property;
  n4sch:Class.label "Category";
  n4sch:label "--CAT" .

<neo4j://graph.schema#Class/Subcategory> n4sch:HAS_PROPERTY <neo4j://graph.schema#Property/Subcategory/--SCAT> .

<neo4j://graph.schema#Property/Subcategory/--SCAT> a n4sch:Property;
  n4sch:label "--SCAT";
  n4sch:Class.label "Subcategory" .

<neo4j://graph.schema#Property/Pre-specified/--PRESP> a n4sch:Property;
  n4sch:Class.label "Pre-specified";
  n4sch:label "--PRESP" .

<<<neo4j://graph.schema#Class/Body%20System%20or%20Organ%20Class%20Code> n4sch:CLASS_RELATES_TO <neo4j://graph.schema#Class/Body%20System%20or%20Organ%20Class>>>
  n4sch:relationship_type "QUALIFIES" .

<neo4j://graph.schema#Class/Body%20System%20or%20Organ%20Class%20Code> n4sch:CLASS_RELATES_TO
    <neo4j://graph.schema#Class/Body%20System%20or%20Organ%20Class>;
  n4sch:HAS_PROPERTY <neo4j://graph.schema#Property/Body%20System%20or%20Organ%20Class%20Code/--BDSYCD> .

<neo4j://graph.schema#Property/Body%20System%20or%20Organ%20Class/--BODSYS> a n4sch:Property;
  n4sch:Class.label "Body System or Organ Class";
  n4sch:label "--BODSYS" .

<neo4j://graph.schema#Property/Body%20System%20or%20Organ%20Class%20Code/--BDSYCD>
  a n4sch:Property;
  n4sch:label "--BDSYCD";
  n4sch:Class.label "Body System or Organ Class Code" .

<neo4j://graph.schema#Class/Primary%20System%20Organ%20Class%20Code> n4sch:CLASS_RELATES_TO
    <neo4j://graph.schema#Class/Primary%20System%20Organ%20Class>;
  n4sch:HAS_PROPERTY <neo4j://graph.schema#Property/Primary%20System%20Organ%20Class%20Code/--SOCCD> .

<<<neo4j://graph.schema#Class/Primary%20System%20Organ%20Class%20Code> n4sch:CLASS_RELATES_TO <neo4j://graph.schema#Class/Primary%20System%20Organ%20Class>>>
  n4sch:relationship_type "QUALIFIES" .

<neo4j://graph.schema#Property/Primary%20System%20Organ%20Class/--SOC> a n4sch:Property;
  n4sch:label "--SOC";
  n4sch:Class.label "Primary System Organ Class" .

<neo4j://graph.schema#Property/Primary%20System%20Organ%20Class%20Code/--SOCCD> a
    n4sch:Property;
  n4sch:label "--SOCCD";
  n4sch:Class.label "Primary System Organ Class Code" .

<neo4j://graph.schema#Property/Location%20of%20Event/--LOC> a n4sch:Property;
  n4sch:label "--LOC";
  n4sch:Class.label "Location of Event" .

<neo4j://graph.schema#Class/Location%20of%20Event> n4sch:HAS_PROPERTY <neo4j://graph.schema#Property/Location%20of%20Event/--LOC> .

<neo4j://graph.schema#Class/Severity> n4sch:HAS_PROPERTY <neo4j://graph.schema#Property/Severity/--SEV> .

<neo4j://graph.schema#Property/Severity/--SEV> a n4sch:Property;
  n4sch:label "--SEV";
  n4sch:Class.label "Severity" .

<neo4j://graph.schema#Class/Serious%20Event> n4sch:HAS_PROPERTY <neo4j://graph.schema#Property/Serious%20Event/--SER> .

<neo4j://graph.schema#Property/Serious%20Event/--SER> a n4sch:Property;
  n4sch:label "--SER";
  n4sch:Class.label "Serious Event" .

<neo4j://graph.schema#Property/Action%20Taken%20with%20Study%20Treatment/--ACN> a
    n4sch:Property;
  n4sch:Class.label "Action Taken with Study Treatment";
  n4sch:label "--ACN" .

<neo4j://graph.schema#Class/Action%20Taken%20with%20Study%20Treatment> n4sch:HAS_PROPERTY
    <neo4j://graph.schema#Property/Action%20Taken%20with%20Study%20Treatment/--ACN> .

<neo4j://graph.schema#Class/Other%20Action%20Taken> n4sch:HAS_PROPERTY <neo4j://graph.schema#Property/Other%20Action%20Taken/--ACNOTH> .

<neo4j://graph.schema#Property/Other%20Action%20Taken/--ACNOTH> a n4sch:Property;
  n4sch:label "--ACNOTH";
  n4sch:Class.label "Other Action Taken" .

<neo4j://graph.schema#Property/Causality/--REL> a n4sch:Property;
  n4sch:Class.label "Causality";
  n4sch:label "--REL" .

<neo4j://graph.schema#Class/Causality> n4sch:HAS_PROPERTY <neo4j://graph.schema#Property/Causality/--REL> .

<neo4j://graph.schema#Property/Relationship%20to%20Non-Study%20Treatment/--RELNST>
  a n4sch:Property;
  n4sch:label "--RELNST";
  n4sch:Class.label "Relationship to Non-Study Treatment" .

<neo4j://graph.schema#Class/Relationship%20to%20Non-Study%20Treatment> n4sch:HAS_PROPERTY
    <neo4j://graph.schema#Property/Relationship%20to%20Non-Study%20Treatment/--RELNST> .

<neo4j://graph.schema#Class/Pattern%20of%20Event> n4sch:HAS_PROPERTY <neo4j://graph.schema#Property/Pattern%20of%20Event/--PATT> .

<neo4j://graph.schema#Property/Pattern%20of%20Event/--PATT> a n4sch:Property;
  n4sch:label "--PATT";
  n4sch:Class.label "Pattern of Event" .

<neo4j://graph.schema#Property/Outcome%20of%20Event/--OUT> a n4sch:Property;
  n4sch:label "--OUT";
  n4sch:Class.label "Outcome of Event" .

<neo4j://graph.schema#Class/Outcome%20of%20Event> n4sch:HAS_PROPERTY <neo4j://graph.schema#Property/Outcome%20of%20Event/--OUT> .

<neo4j://graph.schema#Class/Involves%20Cancer> n4sch:HAS_PROPERTY <neo4j://graph.schema#Property/Involves%20Cancer/--SCAN> .

<neo4j://graph.schema#Property/Involves%20Cancer/--SCAN> a n4sch:Property;
  n4sch:Class.label "Involves Cancer";
  n4sch:label "--SCAN" .

<neo4j://graph.schema#Property/Congenital%20Anomaly%20or%20Birth%20Defect/--SCONG>
  a n4sch:Property;
  n4sch:label "--SCONG";
  n4sch:Class.label "Congenital Anomaly or Birth Defect" .

<neo4j://graph.schema#Class/Congenital%20Anomaly%20or%20Birth%20Defect> n4sch:HAS_PROPERTY
    <neo4j://graph.schema#Property/Congenital%20Anomaly%20or%20Birth%20Defect/--SCONG> .

<neo4j://graph.schema#Property/Persist%20or%20Signif%20Disability/Incapacity/--SDISAB>
  a n4sch:Property;
  n4sch:label "--SDISAB";
  n4sch:Class.label "Persist or Signif Disability/Incapacity" .

<neo4j://graph.schema#Class/Persist%20or%20Signif%20Disability/Incapacity> n4sch:HAS_PROPERTY
    <neo4j://graph.schema#Property/Persist%20or%20Signif%20Disability/Incapacity/--SDISAB> .

<neo4j://graph.schema#Property/Results%20in%20Death/--SDTH> a n4sch:Property;
  n4sch:Class.label "Results in Death";
  n4sch:label "--SDTH" .

<neo4j://graph.schema#Class/Results%20in%20Death> n4sch:HAS_PROPERTY <neo4j://graph.schema#Property/Results%20in%20Death/--SDTH> .

<neo4j://graph.schema#Property/Requires%20or%20Prolongs%20Hospitalization/--SHOSP>
  a n4sch:Property;
  n4sch:label "--SHOSP";
  n4sch:Class.label "Requires or Prolongs Hospitalization" .

<neo4j://graph.schema#Class/Requires%20or%20Prolongs%20Hospitalization> n4sch:HAS_PROPERTY
    <neo4j://graph.schema#Property/Requires%20or%20Prolongs%20Hospitalization/--SHOSP> .

<neo4j://graph.schema#Class/Is%20Life%20Threatening> n4sch:HAS_PROPERTY <neo4j://graph.schema#Property/Is%20Life%20Threatening/--SLIFE> .

<neo4j://graph.schema#Property/Is%20Life%20Threatening/--SLIFE> a n4sch:Property;
  n4sch:Class.label "Is Life Threatening";
  n4sch:label "--SLIFE" .

<neo4j://graph.schema#Class/Occurred%20with%20Overdose> n4sch:HAS_PROPERTY <neo4j://graph.schema#Property/Occurred%20with%20Overdose/--SOD> .

<neo4j://graph.schema#Property/Occurred%20with%20Overdose/--SOD> a n4sch:Property;
  n4sch:label "--SOD";
  n4sch:Class.label "Occurred with Overdose" .

<neo4j://graph.schema#Property/Other%20Medically%20Important%20Serious%20Event/--SMIE>
  a n4sch:Property;
  n4sch:Class.label "Other Medically Important Serious Event";
  n4sch:label "--SMIE" .

<neo4j://graph.schema#Class/Other%20Medically%20Important%20Serious%20Event> n4sch:HAS_PROPERTY
    <neo4j://graph.schema#Property/Other%20Medically%20Important%20Serious%20Event/--SMIE> .

<neo4j://graph.schema#Property/Concomitant%20or%20Additional%20Trtmnt%20Given/--CONTRT>
  a n4sch:Property;
  n4sch:label "--CONTRT";
  n4sch:Class.label "Concomitant or Additional Trtmnt Given" .

<neo4j://graph.schema#Class/Concomitant%20or%20Additional%20Trtmnt%20Given> n4sch:HAS_PROPERTY
    <neo4j://graph.schema#Property/Concomitant%20or%20Additional%20Trtmnt%20Given/--CONTRT> .

<neo4j://graph.schema#Property/Toxicity%20Grade/--TOXGR> a n4sch:Property;
  n4sch:label "--TOXGR";
  n4sch:Class.label "Toxicity Grade" .

<neo4j://graph.schema#Class/Toxicity%20Grade> n4sch:HAS_PROPERTY <neo4j://graph.schema#Property/Toxicity%20Grade/--TOXGR> .

<neo4j://graph.schema#Property/Epoch/EPOCH> a n4sch:Property;
  n4sch:Class.label "Epoch";
  n4sch:label "EPOCH" .

<neo4j://graph.schema#Class/Epoch> n4sch:HAS_PROPERTY <neo4j://graph.schema#Property/Epoch/EPOCH> .

<neo4j://graph.schema#Property/Timing/--STDTC> a n4sch:Property;
  n4sch:Class.label "Timing";
  n4sch:label "--STDTC" .

<neo4j://graph.schema#Property/Timing/--DTC> a n4sch:Property;
  n4sch:label "--DTC";
  n4sch:Class.label "Timing" .

<neo4j://graph.schema#Property/Timing/RFENDTC> a n4sch:Property;
  n4sch:Class.label "Timing";
  n4sch:label "RFENDTC" .

<neo4j://graph.schema#Property/Timing/RFSTDTC> n4sch:Class.label "Timing";
  a n4sch:Property;
  n4sch:label "RFSTDTC" .

<neo4j://graph.schema#Class/Timing> n4sch:HAS_PROPERTY <neo4j://graph.schema#Property/Timing/DTHDTC>,
    <neo4j://graph.schema#Property/Timing/BRTHDTC>, <neo4j://graph.schema#Property/Timing/--ENDTC>,
    <neo4j://graph.schema#Property/Timing/--ENDY>, <neo4j://graph.schema#Property/Timing/RFXSTDTC>,
    <neo4j://graph.schema#Property/Timing/RFICDTC>, <neo4j://graph.schema#Property/Timing/--DY>,
    <neo4j://graph.schema#Property/Timing/--STDY>, <neo4j://graph.schema#Property/Timing/RFPENDTC>,
    <neo4j://graph.schema#Property/Timing/RFXENDTC>, <neo4j://graph.schema#Property/Timing/--STDTC>,
    <neo4j://graph.schema#Property/Timing/RFSTDTC>, <neo4j://graph.schema#Property/Timing/RFENDTC>,
    <neo4j://graph.schema#Property/Timing/--DTC> .

<neo4j://graph.schema#Property/Timing/DTHDTC> a n4sch:Property;
  n4sch:label "DTHDTC";
  n4sch:Class.label "Timing" .

<neo4j://graph.schema#Class/Date/Time> n4sch:SUBCLASS_OF <neo4j://graph.schema#Class/Timing>;
  n4sch:HAS_PROPERTY <neo4j://graph.schema#Property/Date/Time/--STDTC>, <neo4j://graph.schema#Property/Date/Time/--ENDTC>,
    <neo4j://graph.schema#Property/Date/Time/RFSTDTC>, <neo4j://graph.schema#Property/Date/Time/RFENDTC>,
    <neo4j://graph.schema#Property/Date/Time/RFXSTDTC>, <neo4j://graph.schema#Property/Date/Time/RFXENDTC>,
    <neo4j://graph.schema#Property/Date/Time/RFICDTC>, <neo4j://graph.schema#Property/Date/Time/RFPENDTC>,
    <neo4j://graph.schema#Property/Date/Time/DTHDTC>, <neo4j://graph.schema#Property/Date/Time/BRTHDTC>,
    <neo4j://graph.schema#Property/Date/Time/--DTC> .

<neo4j://graph.schema#Property/Timing/BRTHDTC> a n4sch:Property;
  n4sch:label "BRTHDTC";
  n4sch:Class.label "Timing" .

<neo4j://graph.schema#Property/Timing/--ENDTC> a n4sch:Property;
  n4sch:Class.label "Timing";
  n4sch:label "--ENDTC" .

<neo4j://graph.schema#Property/Timing/--ENDY> a n4sch:Property;
  n4sch:label "--ENDY";
  n4sch:Class.label "Timing" .

<neo4j://graph.schema#Property/Timing/RFXSTDTC> a n4sch:Property;
  n4sch:Class.label "Timing";
  n4sch:label "RFXSTDTC" .

<neo4j://graph.schema#Class/Study%20Day> n4sch:SUBCLASS_OF <neo4j://graph.schema#Class/Timing>;
  n4sch:HAS_PROPERTY <neo4j://graph.schema#Property/Study%20Day/--STDY>, <neo4j://graph.schema#Property/Study%20Day/--ENDY>,
    <neo4j://graph.schema#Property/Study%20Day/--DY> .

<neo4j://graph.schema#Property/Timing/RFICDTC> a n4sch:Property;
  n4sch:Class.label "Timing";
  n4sch:label "RFICDTC" .

<neo4j://graph.schema#Property/Timing/--DY> a n4sch:Property;
  n4sch:label "--DY";
  n4sch:Class.label "Timing" .

<neo4j://graph.schema#Property/Timing/--STDY> a n4sch:Property;
  n4sch:Class.label "Timing";
  n4sch:label "--STDY" .

<neo4j://graph.schema#Property/Timing/RFPENDTC> a n4sch:Property;
  n4sch:Class.label "Timing";
  n4sch:label "RFPENDTC" .

<neo4j://graph.schema#Property/Timing/RFXENDTC> a n4sch:Property;
  n4sch:label "RFXENDTC";
  n4sch:Class.label "Timing" .

<neo4j://graph.schema#Property/Duration/--DUR> a n4sch:Property;
  n4sch:Class.label "Duration";
  n4sch:label "--DUR" .

<neo4j://graph.schema#Class/Duration> n4sch:HAS_PROPERTY <neo4j://graph.schema#Property/Duration/--DUR> .

<neo4j://graph.schema#Class/Duration%20of%20Adverse%20Event> n4sch:SUBCLASS_OF <neo4j://graph.schema#Class/Duration> .

<neo4j://graph.schema#Class/Adverse%20Events%20End%20Relative%20to%20Reference%20Period>
  n4sch:SUBCLASS_OF <neo4j://graph.schema#Class/End%20Relative%20to%20Reference%20Period> .

<neo4j://graph.schema#Class/End%20Relative%20to%20Reference%20Period> n4sch:HAS_PROPERTY
    <neo4j://graph.schema#Property/End%20Relative%20to%20Reference%20Period/--ENRF> .

<neo4j://graph.schema#Property/End%20Relative%20to%20Reference%20Period/--ENRF> a
    n4sch:Property;
  n4sch:label "--ENRF";
  n4sch:Class.label "End Relative to Reference Period" .

<neo4j://graph.schema#Property/End%20Relative%20to%20Reference%20Time%20Point/--ENRTPT>
  a n4sch:Property;
  n4sch:Class.label "End Relative to Reference Time Point";
  n4sch:label "--ENRTPT" .

<neo4j://graph.schema#Class/End%20Relative%20to%20Reference%20Time%20Point> n4sch:HAS_PROPERTY
    <neo4j://graph.schema#Property/End%20Relative%20to%20Reference%20Time%20Point/--ENRTPT> .

<neo4j://graph.schema#Class/Adverse%20Events%20End%20Relative%20to%20Reference%20Time%20Point>
  n4sch:SUBCLASS_OF <neo4j://graph.schema#Class/End%20Relative%20to%20Reference%20Time%20Point> .

<neo4j://graph.schema#Class/Adverse%20Events%20End%20Reference%20Time%20Point> n4sch:SUBCLASS_OF
    <neo4j://graph.schema#Class/End%20Reference%20Time%20Point> .

<neo4j://graph.schema#Property/End%20Reference%20Time%20Point/--ENTPT> a n4sch:Property;
  n4sch:label "--ENTPT";
  n4sch:Class.label "End Reference Time Point" .

<neo4j://graph.schema#Class/End%20Reference%20Time%20Point> n4sch:HAS_PROPERTY <neo4j://graph.schema#Property/End%20Reference%20Time%20Point/--ENTPT> .

<neo4j://graph.schema#Class/Reported%20Term> n4sch:HAS_PROPERTY <neo4j://graph.schema#Property/Reported%20Term/--TERM> .

<neo4j://graph.schema#Class/Modified%20Reported%20Term> n4sch:HAS_PROPERTY <neo4j://graph.schema#Property/Modified%20Reported%20Term/--MODIFY> .

<neo4j://graph.schema#Class/Lowest%20Level%20Term> n4sch:HAS_PROPERTY <neo4j://graph.schema#Property/Lowest%20Level%20Term/--LLT> .

<neo4j://graph.schema#Class/Lowest%20Level%20Term%20Code> n4sch:HAS_PROPERTY <neo4j://graph.schema#Property/Lowest%20Level%20Term%20Code/--LLTCD> .

<neo4j://graph.schema#Class/Dictionary-Derived%20Term> n4sch:HAS_PROPERTY <neo4j://graph.schema#Property/Dictionary-Derived%20Term/--DECOD> .

<neo4j://graph.schema#Class/Preferred%20Term%20Code> n4sch:HAS_PROPERTY <neo4j://graph.schema#Property/Preferred%20Term%20Code/--PTCD> .

<neo4j://graph.schema#Class/High%20Level%20Term> n4sch:HAS_PROPERTY <neo4j://graph.schema#Property/High%20Level%20Term/--HLT> .

<neo4j://graph.schema#Class/High%20Level%20Term%20Code> n4sch:HAS_PROPERTY <neo4j://graph.schema#Property/High%20Level%20Term%20Code/--HLTCD> .

<neo4j://graph.schema#Class/High%20Level%20Group%20Term> n4sch:HAS_PROPERTY <neo4j://graph.schema#Property/High%20Level%20Group%20Term/--HLGT> .

<neo4j://graph.schema#Class/High%20Level%20Group%20Term%20Code> n4sch:HAS_PROPERTY
    <neo4j://graph.schema#Property/High%20Level%20Group%20Term%20Code/--HLGTCD> .

<neo4j://graph.schema#Class/Category> n4sch:HAS_PROPERTY <neo4j://graph.schema#Property/Category/--CAT> .

<neo4j://graph.schema#Class/Subcategory> n4sch:HAS_PROPERTY <neo4j://graph.schema#Property/Subcategory/--SCAT> .

<neo4j://graph.schema#Class/Pre-specified> n4sch:HAS_PROPERTY <neo4j://graph.schema#Property/Pre-specified/--PRESP> .

<neo4j://graph.schema#Class/Body%20System%20or%20Organ%20Class> n4sch:HAS_PROPERTY
    <neo4j://graph.schema#Property/Body%20System%20or%20Organ%20Class/--BODSYS> .

<neo4j://graph.schema#Class/Body%20System%20or%20Organ%20Class%20Code> n4sch:HAS_PROPERTY
    <neo4j://graph.schema#Property/Body%20System%20or%20Organ%20Class%20Code/--BDSYCD> .

<neo4j://graph.schema#Class/Primary%20System%20Organ%20Class> n4sch:HAS_PROPERTY <neo4j://graph.schema#Property/Primary%20System%20Organ%20Class/--SOC> .

<neo4j://graph.schema#Class/Primary%20System%20Organ%20Class%20Code> n4sch:HAS_PROPERTY
    <neo4j://graph.schema#Property/Primary%20System%20Organ%20Class%20Code/--SOCCD> .

<neo4j://graph.schema#Class/Location%20of%20Event> n4sch:HAS_PROPERTY <neo4j://graph.schema#Property/Location%20of%20Event/--LOC> .

<neo4j://graph.schema#Class/Severity> n4sch:HAS_PROPERTY <neo4j://graph.schema#Property/Severity/--SEV> .

<neo4j://graph.schema#Class/Serious%20Event> n4sch:HAS_PROPERTY <neo4j://graph.schema#Property/Serious%20Event/--SER> .

<neo4j://graph.schema#Class/Action%20Taken%20with%20Study%20Treatment> n4sch:HAS_PROPERTY
    <neo4j://graph.schema#Property/Action%20Taken%20with%20Study%20Treatment/--ACN> .

<neo4j://graph.schema#Class/Other%20Action%20Taken> n4sch:HAS_PROPERTY <neo4j://graph.schema#Property/Other%20Action%20Taken/--ACNOTH> .

<neo4j://graph.schema#Class/Causality> n4sch:HAS_PROPERTY <neo4j://graph.schema#Property/Causality/--REL> .

<neo4j://graph.schema#Class/Relationship%20to%20Non-Study%20Treatment> n4sch:HAS_PROPERTY
    <neo4j://graph.schema#Property/Relationship%20to%20Non-Study%20Treatment/--RELNST> .

<neo4j://graph.schema#Class/Pattern%20of%20Event> n4sch:HAS_PROPERTY <neo4j://graph.schema#Property/Pattern%20of%20Event/--PATT> .

<neo4j://graph.schema#Class/Outcome%20of%20Event> n4sch:HAS_PROPERTY <neo4j://graph.schema#Property/Outcome%20of%20Event/--OUT> .

<neo4j://graph.schema#Class/Involves%20Cancer> n4sch:HAS_PROPERTY <neo4j://graph.schema#Property/Involves%20Cancer/--SCAN> .

<neo4j://graph.schema#Class/Congenital%20Anomaly%20or%20Birth%20Defect> n4sch:HAS_PROPERTY
    <neo4j://graph.schema#Property/Congenital%20Anomaly%20or%20Birth%20Defect/--SCONG> .

<neo4j://graph.schema#Class/Persist%20or%20Signif%20Disability/Incapacity> n4sch:HAS_PROPERTY
    <neo4j://graph.schema#Property/Persist%20or%20Signif%20Disability/Incapacity/--SDISAB> .

<neo4j://graph.schema#Class/Results%20in%20Death> n4sch:HAS_PROPERTY <neo4j://graph.schema#Property/Results%20in%20Death/--SDTH> .

<neo4j://graph.schema#Class/Requires%20or%20Prolongs%20Hospitalization> n4sch:HAS_PROPERTY
    <neo4j://graph.schema#Property/Requires%20or%20Prolongs%20Hospitalization/--SHOSP> .

<neo4j://graph.schema#Class/Is%20Life%20Threatening> n4sch:HAS_PROPERTY <neo4j://graph.schema#Property/Is%20Life%20Threatening/--SLIFE> .

<neo4j://graph.schema#Class/Occurred%20with%20Overdose> n4sch:HAS_PROPERTY <neo4j://graph.schema#Property/Occurred%20with%20Overdose/--SOD> .

<neo4j://graph.schema#Class/Other%20Medically%20Important%20Serious%20Event> n4sch:HAS_PROPERTY
    <neo4j://graph.schema#Property/Other%20Medically%20Important%20Serious%20Event/--SMIE> .

<neo4j://graph.schema#Class/Concomitant%20or%20Additional%20Trtmnt%20Given> n4sch:HAS_PROPERTY
    <neo4j://graph.schema#Property/Concomitant%20or%20Additional%20Trtmnt%20Given/--CONTRT> .

<neo4j://graph.schema#Class/Toxicity%20Grade> n4sch:HAS_PROPERTY <neo4j://graph.schema#Property/Toxicity%20Grade/--TOXGR> .

<neo4j://graph.schema#Class/Epoch> n4sch:HAS_PROPERTY <neo4j://graph.schema#Property/Epoch/EPOCH> .

<neo4j://graph.schema#Class/Start%20Date/Time%20of%20Observation> n4sch:HAS_PROPERTY
    <neo4j://graph.schema#Property/Start%20Date/Time%20of%20Observation/--STDTC> .

<neo4j://graph.schema#Class/End%20Date/Time%20of%20Observation> n4sch:HAS_PROPERTY
    <neo4j://graph.schema#Property/End%20Date/Time%20of%20Observation/--ENDTC> .

<neo4j://graph.schema#Class/Study%20Day%20of%20Start%20of%20Observation> n4sch:HAS_PROPERTY
    <neo4j://graph.schema#Property/Study%20Day%20of%20Start%20of%20Observation/--STDY> .

<neo4j://graph.schema#Class/Study%20Day%20of%20End%20of%20Observation> n4sch:HAS_PROPERTY
    <neo4j://graph.schema#Property/Study%20Day%20of%20End%20of%20Observation/--ENDY> .

<neo4j://graph.schema#Class/Date/Time%20of%20Collection> n4sch:HAS_PROPERTY <neo4j://graph.schema#Property/Date/Time%20of%20Collection/--DTC> .

<neo4j://graph.schema#Class/Study%20Day%20of%20Visit/Collection/Exam> n4sch:HAS_PROPERTY
    <neo4j://graph.schema#Property/Study%20Day%20of%20Visit/Collection/Exam/--DY> .

<neo4j://graph.schema#Class/Adverse%20Events> n4sch:CLASS_RELATES_TO <neo4j://graph.schema#Class/Pattern%20of%20Adverse%20Event>,
    <neo4j://graph.schema#Class/Adverse%20Events%20Preferred%20Term%20Code>, <neo4j://graph.schema#Class/Pre-Specified%20Adverse%20Event>,
    <neo4j://graph.schema#Class/Adverse%20Events%20Serious%20Event>, <neo4j://graph.schema#Class/Adverse%20Events%20High%20Level%20Group%20Term%20Code>,
    <neo4j://graph.schema#Class/Start%20Date/Time%20of%20Adverse%20Event>, <neo4j://graph.schema#Class/Study%20Day%20of%20Start%20of%20Adverse%20Event>,
    <neo4j://graph.schema#Class/Adverse%20Events%20Concomitant%20or%20Additional%20Trtmnt%20Given>,
    <neo4j://graph.schema#Class/Adverse%20Events%20Epoch>, <neo4j://graph.schema#Class/Study%20Day%20of%20End%20of%20Adverse%20Event>,
    <neo4j://graph.schema#Class/Adverse%20Events%20Action%20Taken%20with%20Study%20Treatment>,
    <neo4j://graph.schema#Class/Adverse%20Events%20High%20Level%20Group%20Term>, <neo4j://graph.schema#Class/Adverse%20Events%20Identifiers>,
    <neo4j://graph.schema#Class/Adverse%20Events%20Body%20System%20or%20Organ%20Class%20Code>,
    <neo4j://graph.schema#Class/Adverse%20Events%20Causality>, <neo4j://graph.schema#Class/Severity/Intensity>,
    <neo4j://graph.schema#Class/Adverse%20Events%20Is%20Life%20Threatening>, <neo4j://graph.schema#Class/Adverse%20Events%20Requires%20or%20Prolongs%20Hospitalization>,
    <neo4j://graph.schema#Class/End%20Date/Time%20of%20Adverse%20Event>, <neo4j://graph.schema#Class/Adverse%20Events%20High%20Level%20Term%20Code>,
    <neo4j://graph.schema#Class/Study>, <neo4j://graph.schema#Class/Category%20for%20Adverse%20Event>,
    <neo4j://graph.schema#Class/Reported%20Term%20for%20the%20Adverse%20Event>, <neo4j://graph.schema#Class/Adverse%20Events%20Lowest%20Level%20Term%20Code>,
    <neo4j://graph.schema#Class/Adverse%20Events%20Body%20System%20or%20Organ%20Class>,
    <neo4j://graph.schema#Class/Duration%20of%20Adverse%20Event>, <neo4j://graph.schema#Class/Adverse%20Events%20Occurred%20with%20Overdose>,
    <neo4j://graph.schema#Class/Adverse%20Events%20Primary%20System%20Organ%20Class%20Code>,
    <neo4j://graph.schema#Class/Adverse%20Events%20End%20Reference%20Time%20Point>, <neo4j://graph.schema#Class/Adverse%20Events%20Primary%20System%20Organ%20Class>,
    <neo4j://graph.schema#Class/Adverse%20Events%20Other%20Medically%20Important%20Serious%20Event>,
    <neo4j://graph.schema#Class/Adverse%20Events%20Relationship%20to%20Non-Study%20Treatment>,
    <neo4j://graph.schema#Class/Subject%20Identifier%20for%20the%20Study>, <neo4j://graph.schema#Class/Adverse%20Events%20Congenital%20Anomaly%20or%20Birth%20Defect>,
    <neo4j://graph.schema#Class/Adverse%20Events%20Dictionary-Derived%20Term>, <neo4j://graph.schema#Class/Subcategory%20for%20Adverse%20Event>,
    <neo4j://graph.schema#Class/Outcome%20of%20Adverse%20Event>, <neo4j://graph.schema#Class/Standard%20Toxicity%20Grade>,
    <neo4j://graph.schema#Class/Adverse%20Events%20Other%20Action%20Taken>, <neo4j://graph.schema#Class/Adverse%20Events%20Location%20of%20Event>,
    <neo4j://graph.schema#Class/Adverse%20Events%20Involves%20Cancer>, <neo4j://graph.schema#Class/Adverse%20Events%20End%20Relative%20to%20Reference%20Period>,
    <neo4j://graph.schema#Class/Adverse%20Events%20Modified%20Reported%20Term>, <neo4j://graph.schema#Class/Adverse%20Events%20Lowest%20Level%20Term>,
    <neo4j://graph.schema#Class/Adverse%20Events%20End%20Relative%20to%20Reference%20Time%20Point>,
    <neo4j://graph.schema#Class/Adverse%20Events%20High%20Level%20Term>, <neo4j://graph.schema#Class/Adverse%20Events%20Persist%20or%20Signif%20Disability/Incapacity>,
    <neo4j://graph.schema#Class/Adverse%20Events%20Results%20in%20Death> .

<neo4j://graph.schema#Class/Subject> n4sch:CLASS_RELATES_TO <neo4j://graph.schema#Class/Adverse%20Events>,
    <neo4j://graph.schema#Class/Demographics> .

<neo4j://graph.schema#Metadata/mdr3_2/Source%20Data%20Table/AE> n4sch:MAPS_TO_CLASS
    <neo4j://graph.schema#Class/Adverse%20Events> .

<neo4j://graph.schema#Class/Demographics> n4sch:CLASS_RELATES_TO <neo4j://graph.schema#Class/Study%20Day%20of%20Visit/Collection/Exam>,
    <neo4j://graph.schema#Class/Date/Time%20of%20Collection>, <neo4j://graph.schema#Class/Age%20Units>,
    <neo4j://graph.schema#Class/Study%20Site%20Identifier>, <neo4j://graph.schema#Class/Demographics%20Date/Time%20of%20Collection>,
    <neo4j://graph.schema#Class/Planned%20Arm%20Code>, <neo4j://graph.schema#Class/Subject%20Death%20Flag>,
    <neo4j://graph.schema#Class/Date/Time%20of%20End%20of%20Participation>, <neo4j://graph.schema#Class/Date/Time%20of%20Last%20Study%20Treatment>,
    <neo4j://graph.schema#Class/Date/Time%20of%20First%20Study%20Treatment>, <neo4j://graph.schema#Class/Race>,
    <neo4j://graph.schema#Class/Study>, <neo4j://graph.schema#Class/Sex>, <neo4j://graph.schema#Class/Date/Time%20of%20Birth>,
    <neo4j://graph.schema#Class/Description%20of%20Planned%20Arm>, <neo4j://graph.schema#Class/Investigator%20Identifier>,
    <neo4j://graph.schema#Class/Ethnicity>, <neo4j://graph.schema#Class/Date/Time%20of%20Informed%20Consent>,
    <neo4j://graph.schema#Class/Subject%20Identifier%20for%20the%20Study>, <neo4j://graph.schema#Class/Country>,
    <neo4j://graph.schema#Class/Date/Time%20of%20Death>, <neo4j://graph.schema#Class/Study%20Day%20of%20Collection>,
    <neo4j://graph.schema#Class/Description%20of%20Actual%20Arm>, <neo4j://graph.schema#Class/Subject%20Reference%20Start%20Date/Time>,
    <neo4j://graph.schema#Class/Demographics%20Identifiers>, <neo4j://graph.schema#Class/Investigator%20Name>,
    <neo4j://graph.schema#Class/Subject%20Reference%20End%20Date/Time>, <neo4j://graph.schema#Class/Actual%20Arm%20Code>,
    <neo4j://graph.schema#Class/Age> .

<neo4j://graph.schema#Metadata/mdr3_2/Source%20Data%20Table/DM> n4sch:MAPS_TO_CLASS
    <neo4j://graph.schema#Class/Demographics> .
