@prefix n4sch: <neo4j://graph.schema#> .

<neo4j://graph.schema#Metadata/mdr3_2/Data%20Extraction%20Standard/MDR3_2> a <neo4j://graph.schema#Data%20Extraction%20Standard>;
  n4sch:_filename_ "export_sdtm_2domains.ttl";
  n4sch:HAS_TABLE <neo4j://graph.schema#Metadata/mdr3_2/Source%20Data%20Table/AE>, <neo4j://graph.schema#Metadata/mdr3_2/Source%20Data%20Table/DM>;
  n4sch:_tag_ "MDR3_2" .

<neo4j://graph.schema#Metadata/mdr3_2/Source%20Data%20Table/AE> a <neo4j://graph.schema#Source%20Data%20Table>;
  n4sch:_domain_ "AE";
  n4sch:SortOrder "USUBJID,STUDYID,AECAT,AESCAT,AETERM,AELOC,AEREFID,AESTDTC,AESEQ" .

<neo4j://graph.schema#Metadata/mdr3_2/Source%20Data%20Table/DM> a <neo4j://graph.schema#Source%20Data%20Table>;
  n4sch:_domain_ "DM";
  n4sch:SortOrder "STUDYID,USUBJID" .

<neo4j://graph.schema#Class/Demographics> a n4sch:Class;
  n4sch:CoreClass true;
  n4sch:short_label "DM";
  n4sch:CLASS_RELATES_TO <neo4j://graph.schema#Class/Study>, <neo4j://graph.schema#Class/Subject%20Identifier%20for%20the%20Study>;
  n4sch:label "Demographics";
  n4sch:from_domains "DM";
  n4sch:create true .

<neo4j://graph.schema#Class/Study> a n4sch:Class;
  n4sch:create false;
  n4sch:label "Study";
  n4sch:short_label "STUDYID";
  n4sch:from_domains "AE,DM";
  n4sch:CoreClass false .

<neo4j://graph.schema#Class/Subject> a n4sch:Class;
  n4sch:label "Subject";
  n4sch:CoreClass false;
  n4sch:from_domains "AE,DM";
  n4sch:CLASS_RELATES_TO <neo4j://graph.schema#Class/Study>, <neo4j://graph.schema#Class/Adverse%20Events%20Domain%20Abbreviation>,
    <neo4j://graph.schema#Class/Adverse%20Events%20Other%20Action%20Taken>, <neo4j://graph.schema#Class/Demographics>,
    <neo4j://graph.schema#Class/Adverse%20Events%20Lowest%20Level%20Term>, <neo4j://graph.schema#Class/Adverse%20Events%20Results%20in%20Death>,
    <neo4j://graph.schema#Class/Adverse%20Events%20Body%20System%20or%20Organ%20Class>,
    <neo4j://graph.schema#Class/Adverse%20Events%20Concomitant%20or%20Additional%20Trtmnt%20Given>,
    <neo4j://graph.schema#Class/Adverse%20Events%20End%20Relative%20to%20Reference%20Time%20Point>,
    <neo4j://graph.schema#Class/Adverse%20Events%20Occurred%20with%20Overdose>, <neo4j://graph.schema#Class/Adverse%20Events%20Involves%20Cancer>,
    <neo4j://graph.schema#Class/Study%20Day%20of%20End%20of%20Adverse%20Event>, <neo4j://graph.schema#Class/Adverse%20Events>,
    <neo4j://graph.schema#Class/Adverse%20Events%20Sequence%20Number>, <neo4j://graph.schema#Class/Adverse%20Events%20Body%20System%20or%20Organ%20Class%20Code>,
    <neo4j://graph.schema#Class/Adverse%20Events%20Group%20ID>, <neo4j://graph.schema#Class/Adverse%20Events%20Requires%20or%20Prolongs%20Hospitalization>,
    <neo4j://graph.schema#Class/Adverse%20Events%20High%20Level%20Term>, <neo4j://graph.schema#Class/Duration%20of%20Adverse%20Event>,
    <neo4j://graph.schema#Class/Subcategory%20for%20Adverse%20Event>, <neo4j://graph.schema#Class/Adverse%20Events%20Relationship%20to%20Non-Study%20Treatment>,
    <neo4j://graph.schema#Class/Study%20Day%20of%20Start%20of%20Adverse%20Event>, <neo4j://graph.schema#Class/Reported%20Term%20for%20the%20Adverse%20Event>,
    <neo4j://graph.schema#Class/Adverse%20Events%20High%20Level%20Group%20Term%20Code>,
    <neo4j://graph.schema#Class/Adverse%20Events%20High%20Level%20Group%20Term>, <neo4j://graph.schema#Class/Severity/Intensity>,
    <neo4j://graph.schema#Class/Adverse%20Events%20Reference%20ID>, <neo4j://graph.schema#Class/Adverse%20Events%20Action%20Taken%20with%20Study%20Treatment>,
    <neo4j://graph.schema#Class/Adverse%20Events%20Other%20Medically%20Important%20Serious%20Event>,
    <neo4j://graph.schema#Class/Pattern%20of%20Adverse%20Event>, <neo4j://graph.schema#Class/Adverse%20Events%20Location%20of%20Event>,
    <neo4j://graph.schema#Class/Adverse%20Events%20End%20Relative%20to%20Reference%20Period>,
    <neo4j://graph.schema#Class/Adverse%20Events%20Lowest%20Level%20Term%20Code>, <neo4j://graph.schema#Class/Adverse%20Events%20Is%20Life%20Threatening>,
    <neo4j://graph.schema#Class/End%20Date/Time%20of%20Adverse%20Event>, <neo4j://graph.schema#Class/Standard%20Toxicity%20Grade>,
    <neo4j://graph.schema#Class/Adverse%20Events%20Preferred%20Term%20Code>, <neo4j://graph.schema#Class/Adverse%20Events%20Primary%20System%20Organ%20Class>,
    <neo4j://graph.schema#Class/Subject%20Identifier%20for%20the%20Study>, <neo4j://graph.schema#Class/Adverse%20Events%20Serious%20Event>,
    <neo4j://graph.schema#Class/Pre-Specified%20Adverse%20Event>, <neo4j://graph.schema#Class/Adverse%20Events%20Epoch>,
    <neo4j://graph.schema#Class/Adverse%20Events%20High%20Level%20Term%20Code>, <neo4j://graph.schema#Class/Sponsor-Defined%20Identifier>,
    <neo4j://graph.schema#Class/Adverse%20Events%20Primary%20System%20Organ%20Class%20Code>,
    <neo4j://graph.schema#Class/Adverse%20Events%20End%20Reference%20Time%20Point>, <neo4j://graph.schema#Class/Adverse%20Events%20Persist%20or%20Signif%20Disability/Incapacity>,
    <neo4j://graph.schema#Class/Start%20Date/Time%20of%20Adverse%20Event>, <neo4j://graph.schema#Class/Adverse%20Events%20Congenital%20Anomaly%20or%20Birth%20Defect>,
    <neo4j://graph.schema#Class/Adverse%20Events%20Causality>, <neo4j://graph.schema#Class/Adverse%20Events%20Dictionary-Derived%20Term>,
    <neo4j://graph.schema#Class/Adverse%20Events%20Modified%20Reported%20Term>, <neo4j://graph.schema#Class/Outcome%20of%20Adverse%20Event>,
    <neo4j://graph.schema#Class/Category%20for%20Adverse%20Event>;
  n4sch:short_label "USUBJID";
  n4sch:create false .

<neo4j://graph.schema#Class/Adverse%20Events> a n4sch:Class;
  n4sch:CLASS_RELATES_TO <neo4j://graph.schema#Class/Study>, <neo4j://graph.schema#Class/Adverse%20Events%20Domain%20Abbreviation>,
    <neo4j://graph.schema#Class/Subject%20Identifier%20for%20the%20Study>, <neo4j://graph.schema#Class/Adverse%20Events%20Sequence%20Number>,
    <neo4j://graph.schema#Class/Adverse%20Events%20Group%20ID>, <neo4j://graph.schema#Class/Adverse%20Events%20Reference%20ID>,
    <neo4j://graph.schema#Class/Sponsor-Defined%20Identifier>, <neo4j://graph.schema#Class/Reported%20Term%20for%20the%20Adverse%20Event>,
    <neo4j://graph.schema#Class/Adverse%20Events%20Modified%20Reported%20Term>, <neo4j://graph.schema#Class/Adverse%20Events%20Lowest%20Level%20Term>,
    <neo4j://graph.schema#Class/Adverse%20Events%20Lowest%20Level%20Term%20Code>, <neo4j://graph.schema#Class/Adverse%20Events%20Dictionary-Derived%20Term>,
    <neo4j://graph.schema#Class/Adverse%20Events%20Preferred%20Term%20Code>, <neo4j://graph.schema#Class/Adverse%20Events%20High%20Level%20Term>,
    <neo4j://graph.schema#Class/Adverse%20Events%20High%20Level%20Term%20Code>, <neo4j://graph.schema#Class/Adverse%20Events%20High%20Level%20Group%20Term>,
    <neo4j://graph.schema#Class/Adverse%20Events%20High%20Level%20Group%20Term%20Code>,
    <neo4j://graph.schema#Class/Category%20for%20Adverse%20Event>, <neo4j://graph.schema#Class/Subcategory%20for%20Adverse%20Event>,
    <neo4j://graph.schema#Class/Pre-Specified%20Adverse%20Event>, <neo4j://graph.schema#Class/Adverse%20Events%20Body%20System%20or%20Organ%20Class>,
    <neo4j://graph.schema#Class/Adverse%20Events%20Body%20System%20or%20Organ%20Class%20Code>,
    <neo4j://graph.schema#Class/Adverse%20Events%20Primary%20System%20Organ%20Class>,
    <neo4j://graph.schema#Class/Adverse%20Events%20Primary%20System%20Organ%20Class%20Code>,
    <neo4j://graph.schema#Class/Adverse%20Events%20Location%20of%20Event>, <neo4j://graph.schema#Class/Severity/Intensity>,
    <neo4j://graph.schema#Class/Adverse%20Events%20Serious%20Event>, <neo4j://graph.schema#Class/Adverse%20Events%20Action%20Taken%20with%20Study%20Treatment>,
    <neo4j://graph.schema#Class/Adverse%20Events%20Other%20Action%20Taken>, <neo4j://graph.schema#Class/Adverse%20Events%20Causality>,
    <neo4j://graph.schema#Class/Adverse%20Events%20Relationship%20to%20Non-Study%20Treatment>,
    <neo4j://graph.schema#Class/Pattern%20of%20Adverse%20Event>, <neo4j://graph.schema#Class/Outcome%20of%20Adverse%20Event>,
    <neo4j://graph.schema#Class/Adverse%20Events%20Involves%20Cancer>, <neo4j://graph.schema#Class/Adverse%20Events%20Congenital%20Anomaly%20or%20Birth%20Defect>,
    <neo4j://graph.schema#Class/Adverse%20Events%20Persist%20or%20Signif%20Disability/Incapacity>,
    <neo4j://graph.schema#Class/Adverse%20Events%20Results%20in%20Death>, <neo4j://graph.schema#Class/Adverse%20Events%20Requires%20or%20Prolongs%20Hospitalization>,
    <neo4j://graph.schema#Class/Adverse%20Events%20Is%20Life%20Threatening>, <neo4j://graph.schema#Class/Adverse%20Events%20Occurred%20with%20Overdose>,
    <neo4j://graph.schema#Class/Adverse%20Events%20Other%20Medically%20Important%20Serious%20Event>,
    <neo4j://graph.schema#Class/Adverse%20Events%20Concomitant%20or%20Additional%20Trtmnt%20Given>,
    <neo4j://graph.schema#Class/Standard%20Toxicity%20Grade>;
  n4sch:short_label "AE";
  n4sch:create true;
  n4sch:label "Adverse Events";
  n4sch:from_domains "AE";
  n4sch:CoreClass true .

<neo4j://graph.schema#Metadata/mdr3_2/Source%20Data%20Column/DM/STUDYID> a <neo4j://graph.schema#Source%20Data%20Column>;
  n4sch:_domain_ "DM";
  n4sch:_columnname_ "STUDYID";
  n4sch:Order "1"^^<http://www.w3.org/2001/XMLSchema#long>;
  n4sch:MAPS_TO_CLASS <neo4j://graph.schema#Class/Study>;
  n4sch:Core "Required" .

<neo4j://graph.schema#Metadata/mdr3_2/Source%20Data%20Column/AE/STUDYID> a <neo4j://graph.schema#Source%20Data%20Column>;
  n4sch:Order "1"^^<http://www.w3.org/2001/XMLSchema#long>;
  n4sch:Core "Required";
  n4sch:_columnname_ "STUDYID";
  n4sch:MAPS_TO_CLASS <neo4j://graph.schema#Class/Study>;
  n4sch:_domain_ "AE" .

<neo4j://graph.schema#Class/Adverse%20Events%20Domain%20Abbreviation> a n4sch:Class;
  n4sch:label "Adverse Events Domain Abbreviation";
  n4sch:create false;
  n4sch:from_domains "AE";
  n4sch:short_label "DOMAIN";
  n4sch:CoreClass false;
  n4sch:SUBCLASS_OF <neo4j://graph.schema#Class/Domain%20Abbreviation> .

<neo4j://graph.schema#Class/Domain%20Abbreviation> a n4sch:Class;
  n4sch:from_domains "AE,DM";
  n4sch:short_label "DOMAIN";
  n4sch:create false;
  n4sch:CoreClass false;
  n4sch:label "Domain Abbreviation" .

<neo4j://graph.schema#Metadata/mdr3_2/Source%20Data%20Column/AE/DOMAIN> a <neo4j://graph.schema#Source%20Data%20Column>;
  n4sch:MAPS_TO_CLASS <neo4j://graph.schema#Class/Adverse%20Events%20Domain%20Abbreviation>;
  n4sch:_columnname_ "DOMAIN";
  n4sch:Order "2"^^<http://www.w3.org/2001/XMLSchema#long>;
  n4sch:Core "Required";
  n4sch:_domain_ "AE" .

<neo4j://graph.schema#Metadata/mdr3_2/Source%20Data%20Column/DM/USUBJID> a <neo4j://graph.schema#Source%20Data%20Column>;
  n4sch:Order "3"^^<http://www.w3.org/2001/XMLSchema#long>;
  n4sch:Core "Required";
  n4sch:_columnname_ "USUBJID";
  n4sch:MAPS_TO_CLASS <neo4j://graph.schema#Class/Subject>;
  n4sch:_domain_ "DM" .

<neo4j://graph.schema#Metadata/mdr3_2/Source%20Data%20Column/AE/USUBJID> a <neo4j://graph.schema#Source%20Data%20Column>;
  n4sch:Order "3"^^<http://www.w3.org/2001/XMLSchema#long>;
  n4sch:Core "Required";
  n4sch:_columnname_ "USUBJID";
  n4sch:_domain_ "AE";
  n4sch:MAPS_TO_CLASS <neo4j://graph.schema#Class/Subject> .

<neo4j://graph.schema#Class/Adverse%20Events%20Other%20Action%20Taken> a n4sch:Class;
  n4sch:short_label "AEACNOTH";
  n4sch:CoreClass false;
  n4sch:label "Adverse Events Other Action Taken";
  n4sch:create false;
  n4sch:from_domains "AE";
  n4sch:SUBCLASS_OF <neo4j://graph.schema#Class/Other%20Action%20Taken> .

<neo4j://graph.schema#Class/Adverse%20Events%20Lowest%20Level%20Term> a n4sch:Class;
  n4sch:create false;
  n4sch:label "Adverse Events Lowest Level Term";
  n4sch:CoreClass false;
  n4sch:from_domains "AE";
  n4sch:short_label "AELLT";
  n4sch:SUBCLASS_OF <neo4j://graph.schema#Class/Lowest%20Level%20Term> .

<neo4j://graph.schema#Class/Adverse%20Events%20Results%20in%20Death> a n4sch:Class;
  n4sch:label "Adverse Events Results in Death";
  n4sch:create false;
  n4sch:short_label "AESDTH";
  n4sch:CoreClass false;
  n4sch:from_domains "AE";
  n4sch:SUBCLASS_OF <neo4j://graph.schema#Class/Results%20in%20Death> .

<neo4j://graph.schema#Class/Adverse%20Events%20Body%20System%20or%20Organ%20Class>
  a n4sch:Class;
  n4sch:create false;
  n4sch:from_domains "AE";
  n4sch:CoreClass false;
  n4sch:label "Adverse Events Body System or Organ Class";
  n4sch:short_label "AEBODSYS";
  n4sch:SUBCLASS_OF <neo4j://graph.schema#Class/Body%20System%20or%20Organ%20Class> .

<neo4j://graph.schema#Class/Adverse%20Events%20Concomitant%20or%20Additional%20Trtmnt%20Given>
  a n4sch:Class;
  n4sch:short_label "AECONTRT";
  n4sch:from_domains "AE";
  n4sch:CoreClass false;
  n4sch:create false;
  n4sch:label "Adverse Events Concomitant or Additional Trtmnt Given";
  n4sch:SUBCLASS_OF <neo4j://graph.schema#Class/Concomitant%20or%20Additional%20Trtmnt%20Given> .

<neo4j://graph.schema#Class/Adverse%20Events%20End%20Relative%20to%20Reference%20Time%20Point>
  a n4sch:Class;
  n4sch:short_label "AEENRTPT";
  n4sch:create false;
  n4sch:CoreClass false;
  n4sch:from_domains "AE";
  n4sch:label "Adverse Events End Relative to Reference Time Point" .

<neo4j://graph.schema#Class/Adverse%20Events%20Occurred%20with%20Overdose> a n4sch:Class;
  n4sch:CoreClass false;
  n4sch:label "Adverse Events Occurred with Overdose";
  n4sch:create false;
  n4sch:short_label "AESOD";
  n4sch:from_domains "AE";
  n4sch:SUBCLASS_OF <neo4j://graph.schema#Class/Occurred%20with%20Overdose> .

<neo4j://graph.schema#Class/Adverse%20Events%20Involves%20Cancer> a n4sch:Class;
  n4sch:label "Adverse Events Involves Cancer";
  n4sch:short_label "AESCAN";
  n4sch:from_domains "AE";
  n4sch:CoreClass false;
  n4sch:create false;
  n4sch:SUBCLASS_OF <neo4j://graph.schema#Class/Involves%20Cancer> .

<neo4j://graph.schema#Class/Study%20Day%20of%20End%20of%20Adverse%20Event> a n4sch:Class;
  n4sch:from_domains "AE";
  n4sch:label "Study Day of End of Adverse Event";
  n4sch:CoreClass false;
  n4sch:create false;
  n4sch:short_label "AEENDY" .

<neo4j://graph.schema#Class/Adverse%20Events%20Sequence%20Number> a n4sch:Class;
  n4sch:from_domains "AE";
  n4sch:create false;
  n4sch:CoreClass false;
  n4sch:label "Adverse Events Sequence Number";
  n4sch:short_label "AESEQ";
  n4sch:SUBCLASS_OF <neo4j://graph.schema#Class/Sequence%20Number> .

<neo4j://graph.schema#Class/Adverse%20Events%20Body%20System%20or%20Organ%20Class%20Code>
  a n4sch:Class;
  n4sch:CoreClass false;
  n4sch:short_label "AEBDSYCD";
  n4sch:create false;
  n4sch:label "Adverse Events Body System or Organ Class Code";
  n4sch:from_domains "AE";
  n4sch:SUBCLASS_OF <neo4j://graph.schema#Class/Body%20System%20or%20Organ%20Class%20Code> .

<neo4j://graph.schema#Class/Adverse%20Events%20Group%20ID> a n4sch:Class;
  n4sch:CoreClass false;
  n4sch:from_domains "AE";
  n4sch:create false;
  n4sch:short_label "AEGRPID";
  n4sch:label "Adverse Events Group ID";
  n4sch:SUBCLASS_OF <neo4j://graph.schema#Class/Group%20ID> .

<neo4j://graph.schema#Class/Adverse%20Events%20Requires%20or%20Prolongs%20Hospitalization>
  a n4sch:Class;
  n4sch:create false;
  n4sch:label "Adverse Events Requires or Prolongs Hospitalization";
  n4sch:from_domains "AE";
  n4sch:CoreClass false;
  n4sch:short_label "AESHOSP";
  n4sch:SUBCLASS_OF <neo4j://graph.schema#Class/Requires%20or%20Prolongs%20Hospitalization> .

<neo4j://graph.schema#Class/Adverse%20Events%20High%20Level%20Term> a n4sch:Class;
  n4sch:label "Adverse Events High Level Term";
  n4sch:short_label "AEHLT";
  n4sch:create false;
  n4sch:from_domains "AE";
  n4sch:CoreClass false;
  n4sch:SUBCLASS_OF <neo4j://graph.schema#Class/High%20Level%20Term> .

<neo4j://graph.schema#Class/Duration%20of%20Adverse%20Event> a n4sch:Class;
  n4sch:label "Duration of Adverse Event";
  n4sch:CoreClass false;
  n4sch:from_domains "AE";
  n4sch:short_label "AEDUR";
  n4sch:create false .

<neo4j://graph.schema#Class/Subcategory%20for%20Adverse%20Event> a n4sch:Class;
  n4sch:from_domains "AE";
  n4sch:short_label "AESCAT";
  n4sch:CoreClass false;
  n4sch:create false;
  n4sch:label "Subcategory for Adverse Event";
  n4sch:SUBCLASS_OF <neo4j://graph.schema#Class/Subcategory> .

<neo4j://graph.schema#Class/Adverse%20Events%20Relationship%20to%20Non-Study%20Treatment>
  a n4sch:Class;
  n4sch:create false;
  n4sch:from_domains "AE";
  n4sch:short_label "AERELNST";
  n4sch:CoreClass false;
  n4sch:label "Adverse Events Relationship to Non-Study Treatment";
  n4sch:SUBCLASS_OF <neo4j://graph.schema#Class/Relationship%20to%20Non-Study%20Treatment> .

<neo4j://graph.schema#Class/Study%20Day%20of%20Start%20of%20Adverse%20Event> a n4sch:Class;
  n4sch:create false;
  n4sch:label "Study Day of Start of Adverse Event";
  n4sch:short_label "AESTDY";
  n4sch:from_domains "AE";
  n4sch:CoreClass false .

<neo4j://graph.schema#Class/Reported%20Term%20for%20the%20Adverse%20Event> a n4sch:Class;
  n4sch:short_label "AETERM";
  n4sch:create false;
  n4sch:from_domains "AE";
  n4sch:CoreClass false;
  n4sch:label "Reported Term for the Adverse Event";
  n4sch:SUBCLASS_OF <neo4j://graph.schema#Class/Reported%20Term> .

<neo4j://graph.schema#Class/Adverse%20Events%20High%20Level%20Group%20Term%20Code>
  a n4sch:Class;
  n4sch:short_label "AEHLGTCD";
  n4sch:create false;
  n4sch:from_domains "AE";
  n4sch:label "Adverse Events High Level Group Term Code";
  n4sch:CoreClass false;
  n4sch:SUBCLASS_OF <neo4j://graph.schema#Class/High%20Level%20Group%20Term%20Code> .

<neo4j://graph.schema#Class/Adverse%20Events%20High%20Level%20Group%20Term> a n4sch:Class;
  n4sch:from_domains "AE";
  n4sch:label "Adverse Events High Level Group Term";
  n4sch:create false;
  n4sch:CoreClass false;
  n4sch:short_label "AEHLGT";
  n4sch:SUBCLASS_OF <neo4j://graph.schema#Class/High%20Level%20Group%20Term> .

<neo4j://graph.schema#Class/Severity/Intensity> a n4sch:Class;
  n4sch:short_label "AESEV";
  n4sch:CoreClass false;
  n4sch:from_domains "AE";
  n4sch:label "Severity/Intensity";
  n4sch:create false;
  n4sch:SUBCLASS_OF <neo4j://graph.schema#Class/Severity> .

<neo4j://graph.schema#Class/Adverse%20Events%20Reference%20ID> a n4sch:Class;
  n4sch:create false;
  n4sch:CoreClass false;
  n4sch:label "Adverse Events Reference ID";
  n4sch:from_domains "AE";
  n4sch:short_label "AEREFID";
  n4sch:SUBCLASS_OF <neo4j://graph.schema#Class/Reference%20ID> .

<neo4j://graph.schema#Class/Adverse%20Events%20Action%20Taken%20with%20Study%20Treatment>
  a n4sch:Class;
  n4sch:short_label "AEACN";
  n4sch:from_domains "AE";
  n4sch:create false;
  n4sch:CoreClass false;
  n4sch:label "Adverse Events Action Taken with Study Treatment";
  n4sch:SUBCLASS_OF <neo4j://graph.schema#Class/Action%20Taken%20with%20Study%20Treatment> .

<neo4j://graph.schema#Class/Adverse%20Events%20Other%20Medically%20Important%20Serious%20Event>
  a n4sch:Class;
  n4sch:create false;
  n4sch:CoreClass false;
  n4sch:label "Adverse Events Other Medically Important Serious Event";
  n4sch:short_label "AESMIE";
  n4sch:from_domains "AE";
  n4sch:SUBCLASS_OF <neo4j://graph.schema#Class/Other%20Medically%20Important%20Serious%20Event> .

<neo4j://graph.schema#Class/Pattern%20of%20Adverse%20Event> a n4sch:Class;
  n4sch:from_domains "AE";
  n4sch:label "Pattern of Adverse Event";
  n4sch:create false;
  n4sch:short_label "AEPATT";
  n4sch:CoreClass false;
  n4sch:SUBCLASS_OF <neo4j://graph.schema#Class/Pattern%20of%20Event> .

<neo4j://graph.schema#Class/Adverse%20Events%20Location%20of%20Event> a n4sch:Class;
  n4sch:short_label "AELOC";
  n4sch:create false;
  n4sch:from_domains "AE";
  n4sch:CoreClass false;
  n4sch:label "Adverse Events Location of Event";
  n4sch:SUBCLASS_OF <neo4j://graph.schema#Class/Location%20of%20Event> .

<neo4j://graph.schema#Class/Adverse%20Events%20End%20Relative%20to%20Reference%20Period>
  a n4sch:Class;
  n4sch:create false;
  n4sch:label "Adverse Events End Relative to Reference Period";
  n4sch:CoreClass false;
  n4sch:short_label "AEENRF";
  n4sch:from_domains "AE" .

<neo4j://graph.schema#Class/Adverse%20Events%20Lowest%20Level%20Term%20Code> a n4sch:Class;
  n4sch:create false;
  n4sch:CoreClass false;
  n4sch:label "Adverse Events Lowest Level Term Code";
  n4sch:from_domains "AE";
  n4sch:short_label "AELLTCD";
  n4sch:SUBCLASS_OF <neo4j://graph.schema#Class/Lowest%20Level%20Term%20Code> .

<neo4j://graph.schema#Class/Adverse%20Events%20Is%20Life%20Threatening> a n4sch:Class;
  n4sch:label "Adverse Events Is Life Threatening";
  n4sch:CoreClass false;
  n4sch:short_label "AESLIFE";
  n4sch:from_domains "AE";
  n4sch:create false;
  n4sch:SUBCLASS_OF <neo4j://graph.schema#Class/Is%20Life%20Threatening> .

<neo4j://graph.schema#Class/End%20Date/Time%20of%20Adverse%20Event> a n4sch:Class;
  n4sch:short_label "AEENDTC";
  n4sch:from_domains "AE";
  n4sch:create false;
  n4sch:label "End Date/Time of Adverse Event";
  n4sch:CoreClass false .

<neo4j://graph.schema#Class/Standard%20Toxicity%20Grade> a n4sch:Class;
  n4sch:from_domains "AE";
  n4sch:CoreClass false;
  n4sch:label "Standard Toxicity Grade";
  n4sch:short_label "AETOXGR";
  n4sch:create false;
  n4sch:SUBCLASS_OF <neo4j://graph.schema#Class/Toxicity%20Grade> .

<neo4j://graph.schema#Class/Adverse%20Events%20Preferred%20Term%20Code> a n4sch:Class;
  n4sch:create false;
  n4sch:label "Adverse Events Preferred Term Code";
  n4sch:CoreClass false;
  n4sch:short_label "AEPTCD";
  n4sch:from_domains "AE";
  n4sch:SUBCLASS_OF <neo4j://graph.schema#Class/Preferred%20Term%20Code> .

<neo4j://graph.schema#Class/Adverse%20Events%20Primary%20System%20Organ%20Class> a
    n4sch:Class;
  n4sch:short_label "AESOC";
  n4sch:from_domains "AE";
  n4sch:create false;
  n4sch:CoreClass false;
  n4sch:label "Adverse Events Primary System Organ Class";
  n4sch:SUBCLASS_OF <neo4j://graph.schema#Class/Primary%20System%20Organ%20Class> .

<neo4j://graph.schema#Class/Subject%20Identifier%20for%20the%20Study> a n4sch:Class;
  n4sch:label "Subject Identifier for the Study";
  n4sch:create false;
  n4sch:short_label "SUBJID";
  n4sch:CoreClass false;
  n4sch:from_domains "AE,DM" .

<neo4j://graph.schema#Class/Adverse%20Events%20Serious%20Event> a n4sch:Class;
  n4sch:CoreClass false;
  n4sch:from_domains "AE";
  n4sch:create false;
  n4sch:label "Adverse Events Serious Event";
  n4sch:short_label "AESER";
  n4sch:SUBCLASS_OF <neo4j://graph.schema#Class/Serious%20Event> .

<neo4j://graph.schema#Class/Pre-Specified%20Adverse%20Event> a n4sch:Class;
  n4sch:create false;
  n4sch:short_label "AEPRESP";
  n4sch:CoreClass false;
  n4sch:from_domains "AE";
  n4sch:label "Pre-Specified Adverse Event";
  n4sch:SUBCLASS_OF <neo4j://graph.schema#Class/Pre-specified> .

<neo4j://graph.schema#Class/Adverse%20Events%20Epoch> a n4sch:Class;
  n4sch:label "Adverse Events Epoch";
  n4sch:create false;
  n4sch:from_domains "AE";
  n4sch:CoreClass false;
  n4sch:short_label "EPOCH" .

<neo4j://graph.schema#Class/Adverse%20Events%20High%20Level%20Term%20Code> a n4sch:Class;
  n4sch:label "Adverse Events High Level Term Code";
  n4sch:short_label "AEHLTCD";
  n4sch:from_domains "AE";
  n4sch:create false;
  n4sch:CoreClass false;
  n4sch:SUBCLASS_OF <neo4j://graph.schema#Class/High%20Level%20Term%20Code> .

<neo4j://graph.schema#Class/Sponsor-Defined%20Identifier> a n4sch:Class;
  n4sch:CoreClass false;
  n4sch:from_domains "AE";
  n4sch:label "Sponsor-Defined Identifier";
  n4sch:create false;
  n4sch:short_label "AESPID";
  n4sch:SUBCLASS_OF <neo4j://graph.schema#Class/Sponsor%20ID> .

<neo4j://graph.schema#Class/Adverse%20Events%20Primary%20System%20Organ%20Class%20Code>
  a n4sch:Class;
  n4sch:from_domains "AE";
  n4sch:short_label "AESOCCD";
  n4sch:CoreClass false;
  n4sch:create false;
  n4sch:label "Adverse Events Primary System Organ Class Code";
  n4sch:SUBCLASS_OF <neo4j://graph.schema#Class/Primary%20System%20Organ%20Class%20Code> .

<neo4j://graph.schema#Class/Adverse%20Events%20End%20Reference%20Time%20Point> a n4sch:Class;
  n4sch:from_domains "AE";
  n4sch:label "Adverse Events End Reference Time Point";
  n4sch:CoreClass false;
  n4sch:short_label "AEENTPT";
  n4sch:create false .

<neo4j://graph.schema#Class/Adverse%20Events%20Persist%20or%20Signif%20Disability/Incapacity>
  a n4sch:Class;
  n4sch:CoreClass false;
  n4sch:short_label "AESDISAB";
  n4sch:from_domains "AE";
  n4sch:label "Adverse Events Persist or Signif Disability/Incapacity";
  n4sch:create false;
  n4sch:SUBCLASS_OF <neo4j://graph.schema#Class/Persist%20or%20Signif%20Disability/Incapacity> .

<neo4j://graph.schema#Class/Start%20Date/Time%20of%20Adverse%20Event> a n4sch:Class;
  n4sch:create false;
  n4sch:CoreClass false;
  n4sch:label "Start Date/Time of Adverse Event";
  n4sch:short_label "AESTDTC";
  n4sch:from_domains "AE" .

<neo4j://graph.schema#Class/Adverse%20Events%20Congenital%20Anomaly%20or%20Birth%20Defect>
  a n4sch:Class;
  n4sch:create false;
  n4sch:short_label "AESCONG";
  n4sch:from_domains "AE";
  n4sch:CoreClass false;
  n4sch:label "Adverse Events Congenital Anomaly or Birth Defect";
  n4sch:SUBCLASS_OF <neo4j://graph.schema#Class/Congenital%20Anomaly%20or%20Birth%20Defect> .

<neo4j://graph.schema#Class/Adverse%20Events%20Causality> a n4sch:Class;
  n4sch:CoreClass false;
  n4sch:create false;
  n4sch:label "Adverse Events Causality";
  n4sch:from_domains "AE";
  n4sch:short_label "AEREL";
  n4sch:SUBCLASS_OF <neo4j://graph.schema#Class/Causality> .

<neo4j://graph.schema#Class/Adverse%20Events%20Dictionary-Derived%20Term> a n4sch:Class;
  n4sch:short_label "AEDECOD";
  n4sch:from_domains "AE";
  n4sch:CoreClass false;
  n4sch:create false;
  n4sch:label "Adverse Events Dictionary-Derived Term";
  n4sch:SUBCLASS_OF <neo4j://graph.schema#Class/Dictionary-Derived%20Term> .

<neo4j://graph.schema#Class/Adverse%20Events%20Modified%20Reported%20Term> a n4sch:Class;
  n4sch:create false;
  n4sch:short_label "AEMODIFY";
  n4sch:CoreClass false;
  n4sch:label "Adverse Events Modified Reported Term";
  n4sch:from_domains "AE";
  n4sch:SUBCLASS_OF <neo4j://graph.schema#Class/Modified%20Reported%20Term> .

<neo4j://graph.schema#Class/Outcome%20of%20Adverse%20Event> a n4sch:Class;
  n4sch:CoreClass false;
  n4sch:from_domains "AE";
  n4sch:short_label "AEOUT";
  n4sch:label "Outcome of Adverse Event";
  n4sch:create false;
  n4sch:SUBCLASS_OF <neo4j://graph.schema#Class/Outcome%20of%20Event> .

<neo4j://graph.schema#Class/Category%20for%20Adverse%20Event> a n4sch:Class;
  n4sch:CoreClass false;
  n4sch:from_domains "AE";
  n4sch:short_label "AECAT";
  n4sch:create false;
  n4sch:label "Category for Adverse Event";
  n4sch:SUBCLASS_OF <neo4j://graph.schema#Class/Category> .

<neo4j://graph.schema#Metadata/mdr3_2/Source%20Data%20Column/AE/SUBJID> a <neo4j://graph.schema#Source%20Data%20Column>;
  n4sch:_columnname_ "SUBJID";
  n4sch:MAPS_TO_CLASS <neo4j://graph.schema#Class/Subject%20Identifier%20for%20the%20Study>;
  n4sch:Core "Permissible";
  n4sch:_domain_ "AE";
  n4sch:Order "4"^^<http://www.w3.org/2001/XMLSchema#long> .

<neo4j://graph.schema#Metadata/mdr3_2/Source%20Data%20Column/DM/SUBJID> a <neo4j://graph.schema#Source%20Data%20Column>;
  n4sch:_domain_ "DM";
  n4sch:_columnname_ "SUBJID";
  n4sch:Order "4"^^<http://www.w3.org/2001/XMLSchema#long>;
  n4sch:MAPS_TO_CLASS <neo4j://graph.schema#Class/Subject%20Identifier%20for%20the%20Study>;
  n4sch:Core "Required" .

<neo4j://graph.schema#Class/Sequence%20Number> a n4sch:Class;
  n4sch:CoreClass false;
  n4sch:from_domains "AE";
  n4sch:short_label "--SEQ";
  n4sch:label "Sequence Number";
  n4sch:create false .

<neo4j://graph.schema#Metadata/mdr3_2/Source%20Data%20Column/AE/AESEQ> a <neo4j://graph.schema#Source%20Data%20Column>;
  n4sch:_domain_ "AE";
  n4sch:MAPS_TO_CLASS <neo4j://graph.schema#Class/Adverse%20Events%20Sequence%20Number>;
  n4sch:Core "Required";
  n4sch:Order "5"^^<http://www.w3.org/2001/XMLSchema#long>;
  n4sch:_columnname_ "AESEQ" .

<neo4j://graph.schema#Metadata/mdr3_2/Source%20Data%20Column/AE/AEGRPID> a <neo4j://graph.schema#Source%20Data%20Column>;
  n4sch:MAPS_TO_CLASS <neo4j://graph.schema#Class/Adverse%20Events%20Group%20ID>;
  n4sch:_domain_ "AE";
  n4sch:Core "Permissible";
  n4sch:_columnname_ "AEGRPID";
  n4sch:Order "6"^^<http://www.w3.org/2001/XMLSchema#long> .

<neo4j://graph.schema#Class/Group%20ID> a n4sch:Class;
  n4sch:from_domains "AE";
  n4sch:CoreClass false;
  n4sch:short_label "--GRPID";
  n4sch:create false;
  n4sch:label "Group ID" .

<neo4j://graph.schema#Class/Reference%20ID> a n4sch:Class;
  n4sch:CoreClass false;
  n4sch:label "Reference ID";
  n4sch:from_domains "AE";
  n4sch:short_label "--REFID";
  n4sch:create false .

<neo4j://graph.schema#Metadata/mdr3_2/Source%20Data%20Column/AE/AEREFID> a <neo4j://graph.schema#Source%20Data%20Column>;
  n4sch:MAPS_TO_CLASS <neo4j://graph.schema#Class/Adverse%20Events%20Reference%20ID>;
  n4sch:_columnname_ "AEREFID";
  n4sch:Core "Permissible";
  n4sch:_domain_ "AE";
  n4sch:Order "7"^^<http://www.w3.org/2001/XMLSchema#long> .

<neo4j://graph.schema#Metadata/mdr3_2/Source%20Data%20Column/AE/AESPID> a <neo4j://graph.schema#Source%20Data%20Column>;
  n4sch:_domain_ "AE";
  n4sch:_columnname_ "AESPID";
  n4sch:MAPS_TO_CLASS <neo4j://graph.schema#Class/Sponsor-Defined%20Identifier>;
  n4sch:Order "8"^^<http://www.w3.org/2001/XMLSchema#long>;
  n4sch:Core "Permissible" .

<neo4j://graph.schema#Class/Sponsor%20ID> a n4sch:Class;
  n4sch:short_label "--SPID";
  n4sch:CoreClass false;
  n4sch:create false;
  n4sch:label "Sponsor ID";
  n4sch:from_domains "AE" .

<neo4j://graph.schema#Class/Reported%20Term> a n4sch:Class;
  n4sch:CoreClass false;
  n4sch:short_label "--TERM";
  n4sch:from_domains "AE";
  n4sch:create false;
  n4sch:label "Reported Term" .

<neo4j://graph.schema#Metadata/mdr3_2/Source%20Data%20Column/AE/AETERM> a <neo4j://graph.schema#Source%20Data%20Column>;
  n4sch:_columnname_ "AETERM";
  n4sch:Order "9"^^<http://www.w3.org/2001/XMLSchema#long>;
  n4sch:Core "Required";
  n4sch:_domain_ "AE";
  n4sch:MAPS_TO_CLASS <neo4j://graph.schema#Class/Reported%20Term%20for%20the%20Adverse%20Event> .

<neo4j://graph.schema#Class/Modified%20Reported%20Term> a n4sch:Class;
  n4sch:CoreClass false;
  n4sch:from_domains "AE";
  n4sch:label "Modified Reported Term";
  n4sch:short_label "--MODIFY";
  n4sch:create false .

<neo4j://graph.schema#Metadata/mdr3_2/Source%20Data%20Column/AE/AEMODIFY> a <neo4j://graph.schema#Source%20Data%20Column>;
  n4sch:Core "Permissible";
  n4sch:MAPS_TO_CLASS <neo4j://graph.schema#Class/Adverse%20Events%20Modified%20Reported%20Term>;
  n4sch:_columnname_ "AEMODIFY";
  n4sch:Order "10"^^<http://www.w3.org/2001/XMLSchema#long>;
  n4sch:_domain_ "AE" .

<neo4j://graph.schema#Metadata/mdr3_2/Source%20Data%20Column/AE/AELLT> a <neo4j://graph.schema#Source%20Data%20Column>;
  n4sch:_columnname_ "AELLT";
  n4sch:Order "11"^^<http://www.w3.org/2001/XMLSchema#long>;
  n4sch:_domain_ "AE";
  n4sch:MAPS_TO_CLASS <neo4j://graph.schema#Class/Adverse%20Events%20Lowest%20Level%20Term>;
  n4sch:Core "Expected" .

<neo4j://graph.schema#Class/Lowest%20Level%20Term> a n4sch:Class;
  n4sch:create false;
  n4sch:short_label "--LLT";
  n4sch:CoreClass false;
  n4sch:from_domains "AE";
  n4sch:label "Lowest Level Term" .

<neo4j://graph.schema#Metadata/mdr3_2/Source%20Data%20Column/AE/AELLTCD> a <neo4j://graph.schema#Source%20Data%20Column>;
  n4sch:MAPS_TO_CLASS <neo4j://graph.schema#Class/Adverse%20Events%20Lowest%20Level%20Term%20Code>;
  n4sch:_columnname_ "AELLTCD";
  n4sch:_domain_ "AE";
  n4sch:Core "Expected";
  n4sch:Order "12"^^<http://www.w3.org/2001/XMLSchema#long> .

<neo4j://graph.schema#Class/Lowest%20Level%20Term%20Code> a n4sch:Class;
  n4sch:label "Lowest Level Term Code";
  n4sch:from_domains "AE";
  n4sch:create false;
  n4sch:short_label "--LLTCD";
  n4sch:CoreClass false .

<neo4j://graph.schema#Metadata/mdr3_2/Source%20Data%20Column/AE/AEDECOD> a <neo4j://graph.schema#Source%20Data%20Column>;
  n4sch:Order "13"^^<http://www.w3.org/2001/XMLSchema#long>;
  n4sch:MAPS_TO_CLASS <neo4j://graph.schema#Class/Adverse%20Events%20Dictionary-Derived%20Term>;
  n4sch:_columnname_ "AEDECOD";
  n4sch:_domain_ "AE";
  n4sch:Core "Required" .

<neo4j://graph.schema#Class/Dictionary-Derived%20Term> a n4sch:Class;
  n4sch:label "Dictionary-Derived Term";
  n4sch:short_label "--DECOD";
  n4sch:from_domains "AE";
  n4sch:CoreClass false;
  n4sch:create false .

<neo4j://graph.schema#Class/Preferred%20Term%20Code> a n4sch:Class;
  n4sch:short_label "--PTCD";
  n4sch:create false;
  n4sch:from_domains "AE";
  n4sch:CoreClass false;
  n4sch:label "Preferred Term Code" .

<neo4j://graph.schema#Metadata/mdr3_2/Source%20Data%20Column/AE/AEPTCD> a <neo4j://graph.schema#Source%20Data%20Column>;
  n4sch:_columnname_ "AEPTCD";
  n4sch:MAPS_TO_CLASS <neo4j://graph.schema#Class/Adverse%20Events%20Preferred%20Term%20Code>;
  n4sch:_domain_ "AE";
  n4sch:Core "Expected";
  n4sch:Order "14"^^<http://www.w3.org/2001/XMLSchema#long> .

<neo4j://graph.schema#Class/High%20Level%20Term> a n4sch:Class;
  n4sch:CoreClass false;
  n4sch:from_domains "AE";
  n4sch:label "High Level Term";
  n4sch:short_label "--HLT";
  n4sch:create false .

<neo4j://graph.schema#Metadata/mdr3_2/Source%20Data%20Column/AE/AEHLT> a <neo4j://graph.schema#Source%20Data%20Column>;
  n4sch:_domain_ "AE";
  n4sch:_columnname_ "AEHLT";
  n4sch:Order "15"^^<http://www.w3.org/2001/XMLSchema#long>;
  n4sch:Core "Expected";
  n4sch:MAPS_TO_CLASS <neo4j://graph.schema#Class/Adverse%20Events%20High%20Level%20Term> .

<neo4j://graph.schema#Class/High%20Level%20Term%20Code> a n4sch:Class;
  n4sch:CoreClass false;
  n4sch:short_label "--HLTCD";
  n4sch:from_domains "AE";
  n4sch:create false;
  n4sch:label "High Level Term Code" .

<neo4j://graph.schema#Metadata/mdr3_2/Source%20Data%20Column/AE/AEHLTCD> a <neo4j://graph.schema#Source%20Data%20Column>;
  n4sch:Core "Expected";
  n4sch:_domain_ "AE";
  n4sch:_columnname_ "AEHLTCD";
  n4sch:MAPS_TO_CLASS <neo4j://graph.schema#Class/Adverse%20Events%20High%20Level%20Term%20Code>;
  n4sch:Order "16"^^<http://www.w3.org/2001/XMLSchema#long> .

<neo4j://graph.schema#Metadata/mdr3_2/Source%20Data%20Column/AE/AEHLGT> a <neo4j://graph.schema#Source%20Data%20Column>;
  n4sch:MAPS_TO_CLASS <neo4j://graph.schema#Class/Adverse%20Events%20High%20Level%20Group%20Term>;
  n4sch:Order "17"^^<http://www.w3.org/2001/XMLSchema#long>;
  n4sch:_domain_ "AE";
  n4sch:_columnname_ "AEHLGT";
  n4sch:Core "Expected" .

<neo4j://graph.schema#Class/High%20Level%20Group%20Term> a n4sch:Class;
  n4sch:CoreClass false;
  n4sch:label "High Level Group Term";
  n4sch:create false;
  n4sch:short_label "--HLGT";
  n4sch:from_domains "AE" .

<neo4j://graph.schema#Class/High%20Level%20Group%20Term%20Code> a n4sch:Class;
  n4sch:label "High Level Group Term Code";
  n4sch:short_label "--HLGTCD";
  n4sch:CoreClass false;
  n4sch:create false;
  n4sch:from_domains "AE" .

<neo4j://graph.schema#Metadata/mdr3_2/Source%20Data%20Column/AE/AEHLGTCD> a <neo4j://graph.schema#Source%20Data%20Column>;
  n4sch:_columnname_ "AEHLGTCD";
  n4sch:MAPS_TO_CLASS <neo4j://graph.schema#Class/Adverse%20Events%20High%20Level%20Group%20Term%20Code>;
  n4sch:_domain_ "AE";
  n4sch:Order "18"^^<http://www.w3.org/2001/XMLSchema#long>;
  n4sch:Core "Expected" .

<neo4j://graph.schema#Class/Category> a n4sch:Class;
  n4sch:from_domains "AE";
  n4sch:short_label "--CAT";
  n4sch:CoreClass false;
  n4sch:label "Category";
  n4sch:create false .

<neo4j://graph.schema#Metadata/mdr3_2/Source%20Data%20Column/AE/AECAT> a <neo4j://graph.schema#Source%20Data%20Column>;
  n4sch:MAPS_TO_CLASS <neo4j://graph.schema#Class/Category%20for%20Adverse%20Event>;
  n4sch:Core "Permissible";
  n4sch:_domain_ "AE";
  n4sch:Order "19"^^<http://www.w3.org/2001/XMLSchema#long>;
  n4sch:_columnname_ "AECAT" .

<neo4j://graph.schema#Class/Subcategory> a n4sch:Class;
  n4sch:label "Subcategory";
  n4sch:from_domains "AE";
  n4sch:create false;
  n4sch:short_label "--SCAT";
  n4sch:CoreClass false .

<neo4j://graph.schema#Metadata/mdr3_2/Source%20Data%20Column/AE/AESCAT> a <neo4j://graph.schema#Source%20Data%20Column>;
  n4sch:Core "Permissible";
  n4sch:_domain_ "AE";
  n4sch:_columnname_ "AESCAT";
  n4sch:MAPS_TO_CLASS <neo4j://graph.schema#Class/Subcategory%20for%20Adverse%20Event>;
  n4sch:Order "20"^^<http://www.w3.org/2001/XMLSchema#long> .

<neo4j://graph.schema#Metadata/mdr3_2/Source%20Data%20Column/AE/AEPRESP> a <neo4j://graph.schema#Source%20Data%20Column>;
  n4sch:Order "21"^^<http://www.w3.org/2001/XMLSchema#long>;
  n4sch:MAPS_TO_CLASS <neo4j://graph.schema#Class/Pre-Specified%20Adverse%20Event>;
  n4sch:_columnname_ "AEPRESP";
  n4sch:_domain_ "AE";
  n4sch:Core "Permissible" .

<neo4j://graph.schema#Class/Pre-specified> a n4sch:Class;
  n4sch:short_label "--PRESP";
  n4sch:from_domains "AE";
  n4sch:CoreClass false;
  n4sch:label "Pre-specified";
  n4sch:create false .

<neo4j://graph.schema#Class/Body%20System%20or%20Organ%20Class> a n4sch:Class;
  n4sch:create false;
  n4sch:label "Body System or Organ Class";
  n4sch:CoreClass false;
  n4sch:short_label "--BODSYS";
  n4sch:from_domains "AE" .

<neo4j://graph.schema#Metadata/mdr3_2/Source%20Data%20Column/AE/AEBODSYS> a <neo4j://graph.schema#Source%20Data%20Column>;
  n4sch:Order "22"^^<http://www.w3.org/2001/XMLSchema#long>;
  n4sch:Core "Expected";
  n4sch:_domain_ "AE";
  n4sch:_columnname_ "AEBODSYS";
  n4sch:MAPS_TO_CLASS <neo4j://graph.schema#Class/Adverse%20Events%20Body%20System%20or%20Organ%20Class> .

<neo4j://graph.schema#Metadata/mdr3_2/Source%20Data%20Column/AE/AEBDSYCD> a <neo4j://graph.schema#Source%20Data%20Column>;
  n4sch:_domain_ "AE";
  n4sch:MAPS_TO_CLASS <neo4j://graph.schema#Class/Adverse%20Events%20Body%20System%20or%20Organ%20Class%20Code>;
  n4sch:Core "Expected";
  n4sch:_columnname_ "AEBDSYCD";
  n4sch:Order "23"^^<http://www.w3.org/2001/XMLSchema#long> .

<neo4j://graph.schema#Class/Body%20System%20or%20Organ%20Class%20Code> a n4sch:Class;
  n4sch:CoreClass false;
  n4sch:short_label "--BDSYCD";
  n4sch:create false;
  n4sch:label "Body System or Organ Class Code";
  n4sch:from_domains "AE" .

<neo4j://graph.schema#Metadata/mdr3_2/Source%20Data%20Column/AE/AESOC> a <neo4j://graph.schema#Source%20Data%20Column>;
  n4sch:Core "Expected";
  n4sch:_domain_ "AE";
  n4sch:_columnname_ "AESOC";
  n4sch:Order "24"^^<http://www.w3.org/2001/XMLSchema#long>;
  n4sch:MAPS_TO_CLASS <neo4j://graph.schema#Class/Adverse%20Events%20Primary%20System%20Organ%20Class> .

<neo4j://graph.schema#Class/Primary%20System%20Organ%20Class> a n4sch:Class;
  n4sch:short_label "--SOC";
  n4sch:create false;
  n4sch:label "Primary System Organ Class";
  n4sch:from_domains "AE";
  n4sch:CoreClass false .

<neo4j://graph.schema#Metadata/mdr3_2/Source%20Data%20Column/AE/AESOCCD> a <neo4j://graph.schema#Source%20Data%20Column>;
  n4sch:_domain_ "AE";
  n4sch:Order "25"^^<http://www.w3.org/2001/XMLSchema#long>;
  n4sch:Core "Expected";
  n4sch:MAPS_TO_CLASS <neo4j://graph.schema#Class/Adverse%20Events%20Primary%20System%20Organ%20Class%20Code>;
  n4sch:_columnname_ "AESOCCD" .

<neo4j://graph.schema#Class/Primary%20System%20Organ%20Class%20Code> a n4sch:Class;
  n4sch:create false;
  n4sch:short_label "--SOCCD";
  n4sch:CoreClass false;
  n4sch:label "Primary System Organ Class Code";
  n4sch:from_domains "AE" .

<neo4j://graph.schema#Class/Location%20of%20Event> a n4sch:Class;
  n4sch:label "Location of Event";
  n4sch:from_domains "AE";
  n4sch:short_label "--LOC";
  n4sch:create false;
  n4sch:CoreClass false .

<neo4j://graph.schema#Metadata/mdr3_2/Source%20Data%20Column/AE/AELOC> a <neo4j://graph.schema#Source%20Data%20Column>;
  n4sch:Core "Permissible";
  n4sch:Order "26"^^<http://www.w3.org/2001/XMLSchema#long>;
  n4sch:_domain_ "AE";
  n4sch:MAPS_TO_CLASS <neo4j://graph.schema#Class/Adverse%20Events%20Location%20of%20Event>;
  n4sch:_columnname_ "AELOC" .

<neo4j://graph.schema#Metadata/mdr3_2/Source%20Data%20Column/AE/AESEV> a <neo4j://graph.schema#Source%20Data%20Column>;
  n4sch:MAPS_TO_CLASS <neo4j://graph.schema#Class/Severity/Intensity>;
  n4sch:Core "Permissible";
  n4sch:Order "27"^^<http://www.w3.org/2001/XMLSchema#long>;
  n4sch:_columnname_ "AESEV";
  n4sch:_domain_ "AE" .

<neo4j://graph.schema#Class/Severity> a n4sch:Class;
  n4sch:label "Severity";
  n4sch:create false;
  n4sch:from_domains "AE";
  n4sch:short_label "--SEV";
  n4sch:CoreClass false .

<neo4j://graph.schema#Class/Serious%20Event> a n4sch:Class;
  n4sch:CoreClass false;
  n4sch:from_domains "AE";
  n4sch:short_label "--SER";
  n4sch:label "Serious Event";
  n4sch:create false .

<neo4j://graph.schema#Metadata/mdr3_2/Source%20Data%20Column/AE/AESER> a <neo4j://graph.schema#Source%20Data%20Column>;
  n4sch:_domain_ "AE";
  n4sch:Order "28"^^<http://www.w3.org/2001/XMLSchema#long>;
  n4sch:MAPS_TO_CLASS <neo4j://graph.schema#Class/Adverse%20Events%20Serious%20Event>;
  n4sch:Core "Expected";
  n4sch:_columnname_ "AESER" .

<neo4j://graph.schema#Class/Action%20Taken%20with%20Study%20Treatment> a n4sch:Class;
  n4sch:short_label "--ACN";
  n4sch:label "Action Taken with Study Treatment";
  n4sch:from_domains "AE";
  n4sch:CoreClass false;
  n4sch:create false .

<neo4j://graph.schema#Metadata/mdr3_2/Source%20Data%20Column/AE/AEACN> a <neo4j://graph.schema#Source%20Data%20Column>;
  n4sch:_columnname_ "AEACN";
  n4sch:MAPS_TO_CLASS <neo4j://graph.schema#Class/Adverse%20Events%20Action%20Taken%20with%20Study%20Treatment>;
  n4sch:_domain_ "AE";
  n4sch:Order "29"^^<http://www.w3.org/2001/XMLSchema#long>;
  n4sch:Core "Expected" .

<neo4j://graph.schema#Class/Other%20Action%20Taken> a n4sch:Class;
  n4sch:label "Other Action Taken";
  n4sch:from_domains "AE";
  n4sch:create false;
  n4sch:short_label "--ACNOTH";
  n4sch:CoreClass false .

<neo4j://graph.schema#Metadata/mdr3_2/Source%20Data%20Column/AE/AEACNOTH> a <neo4j://graph.schema#Source%20Data%20Column>;
  n4sch:Core "Permissible";
  n4sch:_domain_ "AE";
  n4sch:Order "30"^^<http://www.w3.org/2001/XMLSchema#long>;
  n4sch:_columnname_ "AEACNOTH";
  n4sch:MAPS_TO_CLASS <neo4j://graph.schema#Class/Adverse%20Events%20Other%20Action%20Taken> .

<neo4j://graph.schema#Metadata/mdr3_2/Source%20Data%20Column/AE/AEREL> a <neo4j://graph.schema#Source%20Data%20Column>;
  n4sch:_columnname_ "AEREL";
  n4sch:Core "Expected";
  n4sch:MAPS_TO_CLASS <neo4j://graph.schema#Class/Adverse%20Events%20Causality>;
  n4sch:Order "31"^^<http://www.w3.org/2001/XMLSchema#long>;
  n4sch:_domain_ "AE" .

<neo4j://graph.schema#Class/Causality> a n4sch:Class;
  n4sch:create false;
  n4sch:from_domains "AE";
  n4sch:label "Causality";
  n4sch:short_label "--REL";
  n4sch:CoreClass false .

<neo4j://graph.schema#Metadata/mdr3_2/Source%20Data%20Column/AE/AERELNST> a <neo4j://graph.schema#Source%20Data%20Column>;
  n4sch:Order "32"^^<http://www.w3.org/2001/XMLSchema#long>;
  n4sch:MAPS_TO_CLASS <neo4j://graph.schema#Class/Adverse%20Events%20Relationship%20to%20Non-Study%20Treatment>;
  n4sch:_domain_ "AE";
  n4sch:Core "Permissible";
  n4sch:_columnname_ "AERELNST" .

<neo4j://graph.schema#Class/Relationship%20to%20Non-Study%20Treatment> a n4sch:Class;
  n4sch:short_label "--RELNST";
  n4sch:from_domains "AE";
  n4sch:CoreClass false;
  n4sch:label "Relationship to Non-Study Treatment";
  n4sch:create false .

<neo4j://graph.schema#Metadata/mdr3_2/Source%20Data%20Column/AE/AEPATT> a <neo4j://graph.schema#Source%20Data%20Column>;
  n4sch:_domain_ "AE";
  n4sch:_columnname_ "AEPATT";
  n4sch:Core "Permissible";
  n4sch:MAPS_TO_CLASS <neo4j://graph.schema#Class/Pattern%20of%20Adverse%20Event>;
  n4sch:Order "33"^^<http://www.w3.org/2001/XMLSchema#long> .

<neo4j://graph.schema#Class/Pattern%20of%20Event> a n4sch:Class;
  n4sch:CoreClass false;
  n4sch:from_domains "AE";
  n4sch:short_label "--PATT";
  n4sch:label "Pattern of Event";
  n4sch:create false .

<neo4j://graph.schema#Class/Outcome%20of%20Event> a n4sch:Class;
  n4sch:short_label "--OUT";
  n4sch:from_domains "AE";
  n4sch:create false;
  n4sch:CoreClass false;
  n4sch:label "Outcome of Event" .

<neo4j://graph.schema#Metadata/mdr3_2/Source%20Data%20Column/AE/AEOUT> a <neo4j://graph.schema#Source%20Data%20Column>;
  n4sch:_domain_ "AE";
  n4sch:Order "34"^^<http://www.w3.org/2001/XMLSchema#long>;
  n4sch:MAPS_TO_CLASS <neo4j://graph.schema#Class/Outcome%20of%20Adverse%20Event>;
  n4sch:Core "Permissible";
  n4sch:_columnname_ "AEOUT" .

<neo4j://graph.schema#Metadata/mdr3_2/Source%20Data%20Column/AE/AESCAN> a <neo4j://graph.schema#Source%20Data%20Column>;
  n4sch:Core "Permissible";
  n4sch:_columnname_ "AESCAN";
  n4sch:MAPS_TO_CLASS <neo4j://graph.schema#Class/Adverse%20Events%20Involves%20Cancer>;
  n4sch:_domain_ "AE";
  n4sch:Order "35"^^<http://www.w3.org/2001/XMLSchema#long> .

<neo4j://graph.schema#Class/Involves%20Cancer> a n4sch:Class;
  n4sch:short_label "--SCAN";
  n4sch:create false;
  n4sch:from_domains "AE";
  n4sch:CoreClass false;
  n4sch:label "Involves Cancer" .

<neo4j://graph.schema#Class/Congenital%20Anomaly%20or%20Birth%20Defect> a n4sch:Class;
  n4sch:CoreClass false;
  n4sch:short_label "--SCONG";
  n4sch:from_domains "AE";
  n4sch:create false;
  n4sch:label "Congenital Anomaly or Birth Defect" .

<neo4j://graph.schema#Metadata/mdr3_2/Source%20Data%20Column/AE/AESCONG> a <neo4j://graph.schema#Source%20Data%20Column>;
  n4sch:Core "Expected";
  n4sch:MAPS_TO_CLASS <neo4j://graph.schema#Class/Adverse%20Events%20Congenital%20Anomaly%20or%20Birth%20Defect>;
  n4sch:_columnname_ "AESCONG";
  n4sch:Order "36"^^<http://www.w3.org/2001/XMLSchema#long>;
  n4sch:_domain_ "AE" .

<neo4j://graph.schema#Class/Persist%20or%20Signif%20Disability/Incapacity> a n4sch:Class;
  n4sch:CoreClass false;
  n4sch:short_label "--SDISAB";
  n4sch:create false;
  n4sch:label "Persist or Signif Disability/Incapacity";
  n4sch:from_domains "AE" .

<neo4j://graph.schema#Metadata/mdr3_2/Source%20Data%20Column/AE/AESDISAB> a <neo4j://graph.schema#Source%20Data%20Column>;
  n4sch:Core "Expected";
  n4sch:_domain_ "AE";
  n4sch:MAPS_TO_CLASS <neo4j://graph.schema#Class/Adverse%20Events%20Persist%20or%20Signif%20Disability/Incapacity>;
  n4sch:Order "37"^^<http://www.w3.org/2001/XMLSchema#long>;
  n4sch:_columnname_ "AESDISAB" .

<neo4j://graph.schema#Metadata/mdr3_2/Source%20Data%20Column/AE/AESDTH> a <neo4j://graph.schema#Source%20Data%20Column>;
  n4sch:MAPS_TO_CLASS <neo4j://graph.schema#Class/Adverse%20Events%20Results%20in%20Death>;
  n4sch:_columnname_ "AESDTH";
  n4sch:Order "38"^^<http://www.w3.org/2001/XMLSchema#long>;
  n4sch:_domain_ "AE";
  n4sch:Core "Expected" .

<neo4j://graph.schema#Class/Results%20in%20Death> a n4sch:Class;
  n4sch:short_label "--SDTH";
  n4sch:create false;
  n4sch:from_domains "AE";
  n4sch:label "Results in Death";
  n4sch:CoreClass false .

<neo4j://graph.schema#Metadata/mdr3_2/Source%20Data%20Column/AE/AESHOSP> a <neo4j://graph.schema#Source%20Data%20Column>;
  n4sch:Order "39"^^<http://www.w3.org/2001/XMLSchema#long>;
  n4sch:_columnname_ "AESHOSP";
  n4sch:_domain_ "AE";
  n4sch:Core "Expected";
  n4sch:MAPS_TO_CLASS <neo4j://graph.schema#Class/Adverse%20Events%20Requires%20or%20Prolongs%20Hospitalization> .

<neo4j://graph.schema#Class/Requires%20or%20Prolongs%20Hospitalization> a n4sch:Class;
  n4sch:short_label "--SHOSP";
  n4sch:CoreClass false;
  n4sch:label "Requires or Prolongs Hospitalization";
  n4sch:from_domains "AE";
  n4sch:create false .

<neo4j://graph.schema#Class/Is%20Life%20Threatening> a n4sch:Class;
  n4sch:from_domains "AE";
  n4sch:create false;
  n4sch:short_label "--SLIFE";
  n4sch:CoreClass false;
  n4sch:label "Is Life Threatening" .

<neo4j://graph.schema#Metadata/mdr3_2/Source%20Data%20Column/AE/AESLIFE> a <neo4j://graph.schema#Source%20Data%20Column>;
  n4sch:_domain_ "AE";
  n4sch:Core "Expected";
  n4sch:Order "40"^^<http://www.w3.org/2001/XMLSchema#long>;
  n4sch:MAPS_TO_CLASS <neo4j://graph.schema#Class/Adverse%20Events%20Is%20Life%20Threatening>;
  n4sch:_columnname_ "AESLIFE" .

<neo4j://graph.schema#Metadata/mdr3_2/Source%20Data%20Column/AE/AESOD> a <neo4j://graph.schema#Source%20Data%20Column>;
  n4sch:_columnname_ "AESOD";
  n4sch:_domain_ "AE";
  n4sch:MAPS_TO_CLASS <neo4j://graph.schema#Class/Adverse%20Events%20Occurred%20with%20Overdose>;
  n4sch:Order "41"^^<http://www.w3.org/2001/XMLSchema#long>;
  n4sch:Core "Permissible" .

<neo4j://graph.schema#Class/Occurred%20with%20Overdose> a n4sch:Class;
  n4sch:short_label "--SOD";
  n4sch:label "Occurred with Overdose";
  n4sch:from_domains "AE";
  n4sch:CoreClass false;
  n4sch:create false .

<neo4j://graph.schema#Metadata/mdr3_2/Source%20Data%20Column/AE/AESMIE> a <neo4j://graph.schema#Source%20Data%20Column>;
  n4sch:Core "Expected";
  n4sch:MAPS_TO_CLASS <neo4j://graph.schema#Class/Adverse%20Events%20Other%20Medically%20Important%20Serious%20Event>;
  n4sch:Order "42"^^<http://www.w3.org/2001/XMLSchema#long>;
  n4sch:_columnname_ "AESMIE";
  n4sch:_domain_ "AE" .

<neo4j://graph.schema#Class/Other%20Medically%20Important%20Serious%20Event> a n4sch:Class;
  n4sch:from_domains "AE";
  n4sch:CoreClass false;
  n4sch:create false;
  n4sch:short_label "--SMIE";
  n4sch:label "Other Medically Important Serious Event" .

<neo4j://graph.schema#Class/Concomitant%20or%20Additional%20Trtmnt%20Given> a n4sch:Class;
  n4sch:short_label "--CONTRT";
  n4sch:from_domains "AE";
  n4sch:create false;
  n4sch:label "Concomitant or Additional Trtmnt Given";
  n4sch:CoreClass false .

<neo4j://graph.schema#Metadata/mdr3_2/Source%20Data%20Column/AE/AECONTRT> a <neo4j://graph.schema#Source%20Data%20Column>;
  n4sch:_domain_ "AE";
  n4sch:Order "43"^^<http://www.w3.org/2001/XMLSchema#long>;
  n4sch:MAPS_TO_CLASS <neo4j://graph.schema#Class/Adverse%20Events%20Concomitant%20or%20Additional%20Trtmnt%20Given>;
  n4sch:_columnname_ "AECONTRT";
  n4sch:Core "Permissible" .

<neo4j://graph.schema#Class/Toxicity%20Grade> n4sch:from_domains "AE";
  n4sch:short_label "--TOXGR";
  n4sch:label "Toxicity Grade";
  a n4sch:Class;
  n4sch:create false;
  n4sch:CoreClass false .

<neo4j://graph.schema#Metadata/mdr3_2/Source%20Data%20Column/AE/AETOXGR> a <neo4j://graph.schema#Source%20Data%20Column>;
  n4sch:MAPS_TO_CLASS <neo4j://graph.schema#Class/Standard%20Toxicity%20Grade>;
  n4sch:_columnname_ "AETOXGR";
  n4sch:Core "Permissible";
  n4sch:_domain_ "AE";
  n4sch:Order "44"^^<http://www.w3.org/2001/XMLSchema#long> .

<neo4j://graph.schema#Class/Subject> n4sch:CLASS_RELATES_TO <neo4j://graph.schema#Class/Adverse%20Events%20Epoch>,
    <neo4j://graph.schema#Class/Start%20Date/Time%20of%20Adverse%20Event>, <neo4j://graph.schema#Class/End%20Date/Time%20of%20Adverse%20Event>,
    <neo4j://graph.schema#Class/Study%20Day%20of%20Start%20of%20Adverse%20Event>, <neo4j://graph.schema#Class/Study%20Day%20of%20End%20of%20Adverse%20Event>,
    <neo4j://graph.schema#Class/Duration%20of%20Adverse%20Event>, <neo4j://graph.schema#Class/Adverse%20Events%20End%20Relative%20to%20Reference%20Period>,
    <neo4j://graph.schema#Class/Adverse%20Events%20End%20Relative%20to%20Reference%20Time%20Point>,
    <neo4j://graph.schema#Class/Adverse%20Events%20End%20Reference%20Time%20Point>, <neo4j://graph.schema#Class/Adverse%20Events>,
    <neo4j://graph.schema#Class/Demographics> .

<neo4j://graph.schema#Class/Adverse%20Events> n4sch:CLASS_RELATES_TO <neo4j://graph.schema#Class/Adverse%20Events%20Epoch>,
    <neo4j://graph.schema#Class/Start%20Date/Time%20of%20Adverse%20Event>, <neo4j://graph.schema#Class/End%20Date/Time%20of%20Adverse%20Event>,
    <neo4j://graph.schema#Class/Study%20Day%20of%20Start%20of%20Adverse%20Event>, <neo4j://graph.schema#Class/Study%20Day%20of%20End%20of%20Adverse%20Event>,
    <neo4j://graph.schema#Class/Duration%20of%20Adverse%20Event>, <neo4j://graph.schema#Class/Adverse%20Events%20End%20Relative%20to%20Reference%20Period>,
    <neo4j://graph.schema#Class/Adverse%20Events%20End%20Relative%20to%20Reference%20Time%20Point>,
    <neo4j://graph.schema#Class/Adverse%20Events%20End%20Reference%20Time%20Point>, <neo4j://graph.schema#Class/Adverse%20Events%20Congenital%20Anomaly%20or%20Birth%20Defect>,
    <neo4j://graph.schema#Class/Pre-Specified%20Adverse%20Event>, <neo4j://graph.schema#Class/Adverse%20Events%20Serious%20Event>,
    <neo4j://graph.schema#Class/Subject%20Identifier%20for%20the%20Study>, <neo4j://graph.schema#Class/Adverse%20Events%20Causality>,
    <neo4j://graph.schema#Class/Adverse%20Events%20Relationship%20to%20Non-Study%20Treatment>,
    <neo4j://graph.schema#Class/Standard%20Toxicity%20Grade>, <neo4j://graph.schema#Class/Adverse%20Events%20Body%20System%20or%20Organ%20Class>,
    <neo4j://graph.schema#Class/Adverse%20Events%20Other%20Action%20Taken>, <neo4j://graph.schema#Class/Adverse%20Events%20Requires%20or%20Prolongs%20Hospitalization>,
    <neo4j://graph.schema#Class/Adverse%20Events%20Preferred%20Term%20Code>, <neo4j://graph.schema#Class/Adverse%20Events%20Domain%20Abbreviation>,
    <neo4j://graph.schema#Class/Adverse%20Events%20Persist%20or%20Signif%20Disability/Incapacity>,
    <neo4j://graph.schema#Class/Adverse%20Events%20Group%20ID>, <neo4j://graph.schema#Class/Severity/Intensity>,
    <neo4j://graph.schema#Class/Study>, <neo4j://graph.schema#Class/Adverse%20Events%20Lowest%20Level%20Term%20Code>,
    <neo4j://graph.schema#Class/Pattern%20of%20Adverse%20Event>, <neo4j://graph.schema#Class/Adverse%20Events%20Primary%20System%20Organ%20Class>,
    <neo4j://graph.schema#Class/Adverse%20Events%20Primary%20System%20Organ%20Class%20Code>,
    <neo4j://graph.schema#Class/Reported%20Term%20for%20the%20Adverse%20Event>, <neo4j://graph.schema#Class/Adverse%20Events%20Sequence%20Number>,
    <neo4j://graph.schema#Class/Outcome%20of%20Adverse%20Event>, <neo4j://graph.schema#Class/Adverse%20Events%20High%20Level%20Term%20Code>,
    <neo4j://graph.schema#Class/Adverse%20Events%20Occurred%20with%20Overdose>, <neo4j://graph.schema#Class/Adverse%20Events%20Involves%20Cancer>,
    <neo4j://graph.schema#Class/Adverse%20Events%20High%20Level%20Group%20Term%20Code>,
    <neo4j://graph.schema#Class/Adverse%20Events%20Body%20System%20or%20Organ%20Class%20Code>,
    <neo4j://graph.schema#Class/Adverse%20Events%20Action%20Taken%20with%20Study%20Treatment>,
    <neo4j://graph.schema#Class/Category%20for%20Adverse%20Event>, <neo4j://graph.schema#Class/Adverse%20Events%20Lowest%20Level%20Term>,
    <neo4j://graph.schema#Class/Adverse%20Events%20High%20Level%20Group%20Term>, <neo4j://graph.schema#Class/Adverse%20Events%20Is%20Life%20Threatening>,
    <neo4j://graph.schema#Class/Adverse%20Events%20Concomitant%20or%20Additional%20Trtmnt%20Given>,
    <neo4j://graph.schema#Class/Adverse%20Events%20Dictionary-Derived%20Term>, <neo4j://graph.schema#Class/Sponsor-Defined%20Identifier>,
    <neo4j://graph.schema#Class/Subcategory%20for%20Adverse%20Event>, <neo4j://graph.schema#Class/Adverse%20Events%20Reference%20ID>,
    <neo4j://graph.schema#Class/Adverse%20Events%20Other%20Medically%20Important%20Serious%20Event>,
    <neo4j://graph.schema#Class/Adverse%20Events%20Modified%20Reported%20Term>, <neo4j://graph.schema#Class/Adverse%20Events%20High%20Level%20Term>,
    <neo4j://graph.schema#Class/Adverse%20Events%20Results%20in%20Death>, <neo4j://graph.schema#Class/Adverse%20Events%20Location%20of%20Event> .

<neo4j://graph.schema#Metadata/mdr3_2/Source%20Data%20Column/AE/EPOCH> a <neo4j://graph.schema#Source%20Data%20Column>;
  n4sch:Core "Permissible";
  n4sch:MAPS_TO_CLASS <neo4j://graph.schema#Class/Adverse%20Events%20Epoch>;
  n4sch:_columnname_ "EPOCH";
  n4sch:Order "45"^^<http://www.w3.org/2001/XMLSchema#long>;
  n4sch:_domain_ "AE" .

<neo4j://graph.schema#Class/Epoch> a n4sch:Class;
  n4sch:short_label "EPOCH";
  n4sch:from_domains "AE";
  n4sch:label "Epoch";
  n4sch:CoreClass false;
  n4sch:create false .

<neo4j://graph.schema#Class/Adverse%20Events%20Epoch> n4sch:SUBCLASS_OF <neo4j://graph.schema#Class/Epoch> .

<neo4j://graph.schema#Class/Start%20Date/Time%20of%20Observation> a n4sch:Class;
  n4sch:create false;
  n4sch:from_domains "AE";
  n4sch:short_label "--STDTC";
  n4sch:label "Start Date/Time of Observation";
  n4sch:CoreClass false;
  n4sch:SUBCLASS_OF <neo4j://graph.schema#Class/Date/Time> .

<neo4j://graph.schema#Class/Start%20Date/Time%20of%20Adverse%20Event> n4sch:SUBCLASS_OF
    <neo4j://graph.schema#Class/Start%20Date/Time%20of%20Observation> .

<neo4j://graph.schema#Metadata/mdr3_2/Source%20Data%20Column/AE/AESTDTC> a <neo4j://graph.schema#Source%20Data%20Column>;
  n4sch:_domain_ "AE";
  n4sch:Core "Expected";
  n4sch:_columnname_ "AESTDTC";
  n4sch:Order "46"^^<http://www.w3.org/2001/XMLSchema#long>;
  n4sch:MAPS_TO_CLASS <neo4j://graph.schema#Class/Start%20Date/Time%20of%20Adverse%20Event> .

<neo4j://graph.schema#Class/End%20Date/Time%20of%20Adverse%20Event> n4sch:SUBCLASS_OF
    <neo4j://graph.schema#Class/End%20Date/Time%20of%20Observation> .

<neo4j://graph.schema#Class/End%20Date/Time%20of%20Observation> a n4sch:Class;
  n4sch:CoreClass false;
  n4sch:from_domains "AE";
  n4sch:short_label "--ENDTC";
  n4sch:label "End Date/Time of Observation";
  n4sch:create false;
  n4sch:SUBCLASS_OF <neo4j://graph.schema#Class/Date/Time> .

<neo4j://graph.schema#Metadata/mdr3_2/Source%20Data%20Column/AE/AEENDTC> a <neo4j://graph.schema#Source%20Data%20Column>;
  n4sch:_columnname_ "AEENDTC";
  n4sch:Order "47"^^<http://www.w3.org/2001/XMLSchema#long>;
  n4sch:Core "Expected";
  n4sch:MAPS_TO_CLASS <neo4j://graph.schema#Class/End%20Date/Time%20of%20Adverse%20Event>;
  n4sch:_domain_ "AE" .

<neo4j://graph.schema#Metadata/mdr3_2/Source%20Data%20Column/AE/AESTDY> a <neo4j://graph.schema#Source%20Data%20Column>;
  n4sch:_domain_ "AE";
  n4sch:Core "Permissible";
  n4sch:Order "48"^^<http://www.w3.org/2001/XMLSchema#long>;
  n4sch:MAPS_TO_CLASS <neo4j://graph.schema#Class/Study%20Day%20of%20Start%20of%20Adverse%20Event>;
  n4sch:_columnname_ "AESTDY" .

<neo4j://graph.schema#Class/Study%20Day%20of%20Start%20of%20Observation> a n4sch:Class;
  n4sch:short_label "--STDY";
  n4sch:label "Study Day of Start of Observation";
  n4sch:create false;
  n4sch:from_domains "AE";
  n4sch:CoreClass false;
  n4sch:SUBCLASS_OF <neo4j://graph.schema#Class/Study%20Day> .

<neo4j://graph.schema#Class/Study%20Day%20of%20Start%20of%20Adverse%20Event> n4sch:SUBCLASS_OF
    <neo4j://graph.schema#Class/Study%20Day%20of%20Start%20of%20Observation> .

<neo4j://graph.schema#Metadata/mdr3_2/Source%20Data%20Column/AE/AEENDY> a <neo4j://graph.schema#Source%20Data%20Column>;
  n4sch:Core "Permissible";
  n4sch:MAPS_TO_CLASS <neo4j://graph.schema#Class/Study%20Day%20of%20End%20of%20Adverse%20Event>;
  n4sch:Order "49"^^<http://www.w3.org/2001/XMLSchema#long>;
  n4sch:_domain_ "AE";
  n4sch:_columnname_ "AEENDY" .

<neo4j://graph.schema#Class/Study%20Day%20of%20End%20of%20Observation> a n4sch:Class;
  n4sch:CoreClass false;
  n4sch:from_domains "AE";
  n4sch:short_label "--ENDY";
  n4sch:create false;
  n4sch:label "Study Day of End of Observation";
  n4sch:SUBCLASS_OF <neo4j://graph.schema#Class/Study%20Day> .

<neo4j://graph.schema#Class/Study%20Day%20of%20End%20of%20Adverse%20Event> n4sch:SUBCLASS_OF
    <neo4j://graph.schema#Class/Study%20Day%20of%20End%20of%20Observation> .

<neo4j://graph.schema#Metadata/mdr3_2/Source%20Data%20Column/AE/AEDUR> a <neo4j://graph.schema#Source%20Data%20Column>;
  n4sch:MAPS_TO_CLASS <neo4j://graph.schema#Class/Duration%20of%20Adverse%20Event>;
  n4sch:_domain_ "AE";
  n4sch:Order "50"^^<http://www.w3.org/2001/XMLSchema#long>;
  n4sch:Core "Permissible";
  n4sch:_columnname_ "AEDUR" .

<neo4j://graph.schema#Class/Duration%20of%20Adverse%20Event> n4sch:SUBCLASS_OF <neo4j://graph.schema#Class/Duration> .

<neo4j://graph.schema#Class/Duration> a n4sch:Class;
  n4sch:short_label "--DUR";
  n4sch:CoreClass false;
  n4sch:label "Duration";
  n4sch:from_domains "AE";
  n4sch:create false .

<neo4j://graph.schema#Class/End%20Relative%20to%20Reference%20Period> a n4sch:Class;
  n4sch:create false;
  n4sch:CoreClass false;
  n4sch:short_label "--ENRF";
  n4sch:label "End Relative to Reference Period";
  n4sch:from_domains "AE" .

<neo4j://graph.schema#Class/Adverse%20Events%20End%20Relative%20to%20Reference%20Period>
  n4sch:SUBCLASS_OF <neo4j://graph.schema#Class/End%20Relative%20to%20Reference%20Period> .

<neo4j://graph.schema#Metadata/mdr3_2/Source%20Data%20Column/AE/AEENRF> a <neo4j://graph.schema#Source%20Data%20Column>;
  n4sch:_domain_ "AE";
  n4sch:Core "Permissible";
  n4sch:_columnname_ "AEENRF";
  n4sch:MAPS_TO_CLASS <neo4j://graph.schema#Class/Adverse%20Events%20End%20Relative%20to%20Reference%20Period>;
  n4sch:Order "51"^^<http://www.w3.org/2001/XMLSchema#long> .

<neo4j://graph.schema#Class/End%20Relative%20to%20Reference%20Time%20Point> a n4sch:Class;
  n4sch:create false;
  n4sch:CoreClass false;
  n4sch:short_label "--ENRTPT";
  n4sch:label "End Relative to Reference Time Point";
  n4sch:from_domains "AE" .

<neo4j://graph.schema#Class/Adverse%20Events%20End%20Relative%20to%20Reference%20Time%20Point>
  n4sch:SUBCLASS_OF <neo4j://graph.schema#Class/End%20Relative%20to%20Reference%20Time%20Point> .

<neo4j://graph.schema#Metadata/mdr3_2/Source%20Data%20Column/AE/AEENRTPT> a <neo4j://graph.schema#Source%20Data%20Column>;
  n4sch:_domain_ "AE";
  n4sch:MAPS_TO_CLASS <neo4j://graph.schema#Class/Adverse%20Events%20End%20Relative%20to%20Reference%20Time%20Point>;
  n4sch:Order "52"^^<http://www.w3.org/2001/XMLSchema#long>;
  n4sch:_columnname_ "AEENRTPT";
  n4sch:Core "Permissible" .

<neo4j://graph.schema#Class/End%20Reference%20Time%20Point> a n4sch:Class;
  n4sch:CoreClass false;
  n4sch:label "End Reference Time Point";
  n4sch:short_label "--ENTPT";
  n4sch:from_domains "AE";
  n4sch:create false .

<neo4j://graph.schema#Class/Adverse%20Events%20End%20Reference%20Time%20Point> n4sch:SUBCLASS_OF
    <neo4j://graph.schema#Class/End%20Reference%20Time%20Point> .

<neo4j://graph.schema#Metadata/mdr3_2/Source%20Data%20Column/AE/AEENTPT> a <neo4j://graph.schema#Source%20Data%20Column>;
  n4sch:MAPS_TO_CLASS <neo4j://graph.schema#Class/Adverse%20Events%20End%20Reference%20Time%20Point>;
  n4sch:Core "Permissible";
  n4sch:_domain_ "AE";
  n4sch:_columnname_ "AEENTPT";
  n4sch:Order "53"^^<http://www.w3.org/2001/XMLSchema#long> .

<neo4j://graph.schema#Class/Demographics%20Domain%20Abbreviation> a n4sch:Class;
  n4sch:short_label "DOMAIN";
  n4sch:create false;
  n4sch:from_domains "DM";
  n4sch:label "Demographics Domain Abbreviation";
  n4sch:CoreClass false;
  n4sch:SUBCLASS_OF <neo4j://graph.schema#Class/Domain%20Abbreviation> .

<neo4j://graph.schema#Class/Demographics> n4sch:CLASS_RELATES_TO <neo4j://graph.schema#Class/Demographics%20Domain%20Abbreviation>,
    <neo4j://graph.schema#Class/Subject%20Reference%20Start%20Date/Time>, <neo4j://graph.schema#Class/Subject%20Reference%20End%20Date/Time>,
    <neo4j://graph.schema#Class/Date/Time%20of%20First%20Study%20Treatment>, <neo4j://graph.schema#Class/Date/Time%20of%20Last%20Study%20Treatment>,
    <neo4j://graph.schema#Class/Date/Time%20of%20Informed%20Consent>, <neo4j://graph.schema#Class/Date/Time%20of%20End%20of%20Participation>,
    <neo4j://graph.schema#Class/Date/Time%20of%20Death>, <neo4j://graph.schema#Class/Subject%20Death%20Flag>,
    <neo4j://graph.schema#Class/Study%20Site%20Identifier>, <neo4j://graph.schema#Class/Investigator%20Identifier>,
    <neo4j://graph.schema#Class/Investigator%20Name>, <neo4j://graph.schema#Class/Date/Time%20of%20Birth>,
    <neo4j://graph.schema#Class/Age>, <neo4j://graph.schema#Class/Age%20Units>, <neo4j://graph.schema#Class/Sex>,
    <neo4j://graph.schema#Class/Race>, <neo4j://graph.schema#Class/Ethnicity>, <neo4j://graph.schema#Class/Planned%20Arm%20Code>,
    <neo4j://graph.schema#Class/Description%20of%20Planned%20Arm>, <neo4j://graph.schema#Class/Actual%20Arm%20Code>,
    <neo4j://graph.schema#Class/Description%20of%20Actual%20Arm>, <neo4j://graph.schema#Class/Country>,
    <neo4j://graph.schema#Class/Demographics%20Date/Time%20of%20Collection>, <neo4j://graph.schema#Class/Study%20Day%20of%20Collection>,
    <neo4j://graph.schema#Class/Date/Time%20of%20Collection>, <neo4j://graph.schema#Class/Study%20Day%20of%20Visit/Collection/Exam>,
    <neo4j://graph.schema#Class/Study>, <neo4j://graph.schema#Class/Subject%20Identifier%20for%20the%20Study> .

<neo4j://graph.schema#Metadata/mdr3_2/Source%20Data%20Column/DM/DOMAIN> a <neo4j://graph.schema#Source%20Data%20Column>;
  n4sch:_domain_ "DM";
  n4sch:Order "2"^^<http://www.w3.org/2001/XMLSchema#long>;
  n4sch:_columnname_ "DOMAIN";
  n4sch:Core "Required";
  n4sch:MAPS_TO_CLASS <neo4j://graph.schema#Class/Demographics%20Domain%20Abbreviation> .

<neo4j://graph.schema#Class/Subject%20Reference%20Start%20Date/Time> a n4sch:Class;
  n4sch:CoreClass false;
  n4sch:create false;
  n4sch:label "Subject Reference Start Date/Time";
  n4sch:short_label "RFSTDTC";
  n4sch:from_domains "DM";
  n4sch:SUBCLASS_OF <neo4j://graph.schema#Class/Date/Time> .

<neo4j://graph.schema#Metadata/mdr3_2/Source%20Data%20Column/DM/RFSTDTC> a <neo4j://graph.schema#Source%20Data%20Column>;
  n4sch:MAPS_TO_CLASS <neo4j://graph.schema#Class/Subject%20Reference%20Start%20Date/Time>;
  n4sch:_columnname_ "RFSTDTC";
  n4sch:Core "Expected";
  n4sch:Order "5"^^<http://www.w3.org/2001/XMLSchema#long>;
  n4sch:_domain_ "DM" .

<neo4j://graph.schema#Class/Date/Time> a n4sch:Class;
  n4sch:label "Date/Time";
  n4sch:from_domains "AE,DM";
  n4sch:CoreClass false;
  n4sch:create false;
  n4sch:short_label "DTC";
  n4sch:SUBCLASS_OF <neo4j://graph.schema#Class/Timing> .

<neo4j://graph.schema#Class/Subject%20Reference%20End%20Date/Time> a n4sch:Class;
  n4sch:label "Subject Reference End Date/Time";
  n4sch:short_label "RFENDTC";
  n4sch:from_domains "DM";
  n4sch:CoreClass false;
  n4sch:create false;
  n4sch:SUBCLASS_OF <neo4j://graph.schema#Class/Date/Time> .

<neo4j://graph.schema#Metadata/mdr3_2/Source%20Data%20Column/DM/RFENDTC> a <neo4j://graph.schema#Source%20Data%20Column>;
  n4sch:MAPS_TO_CLASS <neo4j://graph.schema#Class/Subject%20Reference%20End%20Date/Time>;
  n4sch:Core "Expected";
  n4sch:Order "6"^^<http://www.w3.org/2001/XMLSchema#long>;
  n4sch:_columnname_ "RFENDTC";
  n4sch:_domain_ "DM" .

<neo4j://graph.schema#Class/Date/Time%20of%20First%20Study%20Treatment> a n4sch:Class;
  n4sch:short_label "RFXSTDTC";
  n4sch:CoreClass false;
  n4sch:from_domains "DM";
  n4sch:label "Date/Time of First Study Treatment";
  n4sch:create false;
  n4sch:SUBCLASS_OF <neo4j://graph.schema#Class/Date/Time> .

<neo4j://graph.schema#Metadata/mdr3_2/Source%20Data%20Column/DM/RFXSTDTC> a <neo4j://graph.schema#Source%20Data%20Column>;
  n4sch:Order "7"^^<http://www.w3.org/2001/XMLSchema#long>;
  n4sch:_domain_ "DM";
  n4sch:_columnname_ "RFXSTDTC";
  n4sch:MAPS_TO_CLASS <neo4j://graph.schema#Class/Date/Time%20of%20First%20Study%20Treatment>;
  n4sch:Core "Expected" .

<neo4j://graph.schema#Class/Date/Time%20of%20Last%20Study%20Treatment> a n4sch:Class;
  n4sch:short_label "RFXENDTC";
  n4sch:from_domains "DM";
  n4sch:label "Date/Time of Last Study Treatment";
  n4sch:CoreClass false;
  n4sch:create false;
  n4sch:SUBCLASS_OF <neo4j://graph.schema#Class/Date/Time> .

<neo4j://graph.schema#Metadata/mdr3_2/Source%20Data%20Column/DM/RFXENDTC> a <neo4j://graph.schema#Source%20Data%20Column>;
  n4sch:_domain_ "DM";
  n4sch:MAPS_TO_CLASS <neo4j://graph.schema#Class/Date/Time%20of%20Last%20Study%20Treatment>;
  n4sch:_columnname_ "RFXENDTC";
  n4sch:Order "8"^^<http://www.w3.org/2001/XMLSchema#long>;
  n4sch:Core "Expected" .

<neo4j://graph.schema#Class/Date/Time%20of%20Informed%20Consent> a n4sch:Class;
  n4sch:short_label "RFICDTC";
  n4sch:create false;
  n4sch:label "Date/Time of Informed Consent";
  n4sch:CoreClass false;
  n4sch:from_domains "DM";
  n4sch:SUBCLASS_OF <neo4j://graph.schema#Class/Date/Time> .

<neo4j://graph.schema#Metadata/mdr3_2/Source%20Data%20Column/DM/RFICDTC> a <neo4j://graph.schema#Source%20Data%20Column>;
  n4sch:MAPS_TO_CLASS <neo4j://graph.schema#Class/Date/Time%20of%20Informed%20Consent>;
  n4sch:Order "9"^^<http://www.w3.org/2001/XMLSchema#long>;
  n4sch:Core "Expected";
  n4sch:_domain_ "DM";
  n4sch:_columnname_ "RFICDTC" .

<neo4j://graph.schema#Class/Date/Time%20of%20End%20of%20Participation> a n4sch:Class;
  n4sch:from_domains "DM";
  n4sch:label "Date/Time of End of Participation";
  n4sch:short_label "RFPENDTC";
  n4sch:create false;
  n4sch:CoreClass false;
  n4sch:SUBCLASS_OF <neo4j://graph.schema#Class/Date/Time> .

<neo4j://graph.schema#Metadata/mdr3_2/Source%20Data%20Column/DM/RFPENDTC> a <neo4j://graph.schema#Source%20Data%20Column>;
  n4sch:Core "Expected";
  n4sch:MAPS_TO_CLASS <neo4j://graph.schema#Class/Date/Time%20of%20End%20of%20Participation>;
  n4sch:Order "10"^^<http://www.w3.org/2001/XMLSchema#long>;
  n4sch:_columnname_ "RFPENDTC";
  n4sch:_domain_ "DM" .

<neo4j://graph.schema#Class/Date/Time%20of%20Death> a n4sch:Class;
  n4sch:label "Date/Time of Death";
  n4sch:short_label "DTHDTC";
  n4sch:from_domains "DM";
  n4sch:CoreClass false;
  n4sch:create false;
  n4sch:SUBCLASS_OF <neo4j://graph.schema#Class/Date/Time> .

<neo4j://graph.schema#Metadata/mdr3_2/Source%20Data%20Column/DM/DTHDTC> a <neo4j://graph.schema#Source%20Data%20Column>;
  n4sch:Order "11"^^<http://www.w3.org/2001/XMLSchema#long>;
  n4sch:Core "Expected";
  n4sch:MAPS_TO_CLASS <neo4j://graph.schema#Class/Date/Time%20of%20Death>;
  n4sch:_columnname_ "DTHDTC";
  n4sch:_domain_ "DM" .

<neo4j://graph.schema#Class/Subject%20Death%20Flag> a n4sch:Class;
  n4sch:create false;
  n4sch:CoreClass false;
  n4sch:label "Subject Death Flag";
  n4sch:from_domains "DM";
  n4sch:short_label "DTHFL" .

<neo4j://graph.schema#Metadata/mdr3_2/Source%20Data%20Column/DM/DTHFL> a <neo4j://graph.schema#Source%20Data%20Column>;
  n4sch:_columnname_ "DTHFL";
  n4sch:_domain_ "DM";
  n4sch:Order "12"^^<http://www.w3.org/2001/XMLSchema#long>;
  n4sch:MAPS_TO_CLASS <neo4j://graph.schema#Class/Subject%20Death%20Flag>;
  n4sch:Core "Expected" .

<neo4j://graph.schema#Class/Study%20Site%20Identifier> a n4sch:Class;
  n4sch:label "Study Site Identifier";
  n4sch:create false;
  n4sch:from_domains "DM";
  n4sch:short_label "SITEID";
  n4sch:CoreClass false .

<neo4j://graph.schema#Metadata/mdr3_2/Source%20Data%20Column/DM/SITEID> a <neo4j://graph.schema#Source%20Data%20Column>;
  n4sch:Core "Required";
  n4sch:_columnname_ "SITEID";
  n4sch:_domain_ "DM";
  n4sch:MAPS_TO_CLASS <neo4j://graph.schema#Class/Study%20Site%20Identifier>;
  n4sch:Order "13"^^<http://www.w3.org/2001/XMLSchema#long> .

<neo4j://graph.schema#Class/Investigator%20Identifier> a n4sch:Class;
  n4sch:short_label "INVID";
  n4sch:label "Investigator Identifier";
  n4sch:create false;
  n4sch:from_domains "DM";
  n4sch:CoreClass false .

<neo4j://graph.schema#Metadata/mdr3_2/Source%20Data%20Column/DM/INVID> a <neo4j://graph.schema#Source%20Data%20Column>;
  n4sch:_columnname_ "INVID";
  n4sch:Core "Permissible";
  n4sch:MAPS_TO_CLASS <neo4j://graph.schema#Class/Investigator%20Identifier>;
  n4sch:Order "14"^^<http://www.w3.org/2001/XMLSchema#long>;
  n4sch:_domain_ "DM" .

<neo4j://graph.schema#Class/Investigator%20Name> a n4sch:Class;
  n4sch:CoreClass false;
  n4sch:short_label "INVNAM";
  n4sch:label "Investigator Name";
  n4sch:from_domains "DM";
  n4sch:create false .

<neo4j://graph.schema#Metadata/mdr3_2/Source%20Data%20Column/DM/INVNAM> a <neo4j://graph.schema#Source%20Data%20Column>;
  n4sch:MAPS_TO_CLASS <neo4j://graph.schema#Class/Investigator%20Name>;
  n4sch:_domain_ "DM";
  n4sch:_columnname_ "INVNAM";
  n4sch:Order "15"^^<http://www.w3.org/2001/XMLSchema#long>;
  n4sch:Core "Permissible" .

<neo4j://graph.schema#Class/Date/Time%20of%20Birth> a n4sch:Class;
  n4sch:from_domains "DM";
  n4sch:short_label "BRTHDTC";
  n4sch:label "Date/Time of Birth";
  n4sch:CoreClass false;
  n4sch:create false;
  n4sch:SUBCLASS_OF <neo4j://graph.schema#Class/Date/Time> .

<neo4j://graph.schema#Metadata/mdr3_2/Source%20Data%20Column/DM/BRTHDTC> a <neo4j://graph.schema#Source%20Data%20Column>;
  n4sch:Core "Permissible";
  n4sch:MAPS_TO_CLASS <neo4j://graph.schema#Class/Date/Time%20of%20Birth>;
  n4sch:Order "16"^^<http://www.w3.org/2001/XMLSchema#long>;
  n4sch:_columnname_ "BRTHDTC";
  n4sch:_domain_ "DM" .

<neo4j://graph.schema#Class/Age> a n4sch:Class;
  n4sch:from_domains "DM";
  n4sch:short_label "AGE";
  n4sch:CoreClass false;
  n4sch:create false;
  n4sch:label "Age" .

<neo4j://graph.schema#Metadata/mdr3_2/Source%20Data%20Column/DM/AGE> a <neo4j://graph.schema#Source%20Data%20Column>;
  n4sch:Order "17"^^<http://www.w3.org/2001/XMLSchema#long>;
  n4sch:MAPS_TO_CLASS <neo4j://graph.schema#Class/Age>;
  n4sch:_domain_ "DM";
  n4sch:Core "Expected";
  n4sch:_columnname_ "AGE" .

<neo4j://graph.schema#Class/Age%20Units> a n4sch:Class;
  n4sch:label "Age Units";
  n4sch:short_label "AGEU";
  n4sch:create false;
  n4sch:from_domains "DM";
  n4sch:CoreClass false .

<neo4j://graph.schema#Metadata/mdr3_2/Source%20Data%20Column/DM/AGEU> a <neo4j://graph.schema#Source%20Data%20Column>;
  n4sch:MAPS_TO_CLASS <neo4j://graph.schema#Class/Age%20Units>;
  n4sch:_domain_ "DM";
  n4sch:_columnname_ "AGEU";
  n4sch:Core "Expected";
  n4sch:Order "18"^^<http://www.w3.org/2001/XMLSchema#long> .

<neo4j://graph.schema#Class/Sex> a n4sch:Class;
  n4sch:from_domains "DM";
  n4sch:CoreClass false;
  n4sch:short_label "SEX";
  n4sch:create false;
  n4sch:label "Sex" .

<neo4j://graph.schema#Metadata/mdr3_2/Source%20Data%20Column/DM/SEX> a <neo4j://graph.schema#Source%20Data%20Column>;
  n4sch:_domain_ "DM";
  n4sch:Core "Required";
  n4sch:MAPS_TO_CLASS <neo4j://graph.schema#Class/Sex>;
  n4sch:Order "19"^^<http://www.w3.org/2001/XMLSchema#long>;
  n4sch:_columnname_ "SEX" .

<neo4j://graph.schema#Class/Race> a n4sch:Class;
  n4sch:from_domains "DM";
  n4sch:CoreClass false;
  n4sch:label "Race";
  n4sch:create false;
  n4sch:short_label "RACE" .

<neo4j://graph.schema#Metadata/mdr3_2/Source%20Data%20Column/DM/RACE> a <neo4j://graph.schema#Source%20Data%20Column>;
  n4sch:_columnname_ "RACE";
  n4sch:Order "20"^^<http://www.w3.org/2001/XMLSchema#long>;
  n4sch:Core "Expected";
  n4sch:_domain_ "DM";
  n4sch:MAPS_TO_CLASS <neo4j://graph.schema#Class/Race> .

<neo4j://graph.schema#Class/Ethnicity> a n4sch:Class;
  n4sch:from_domains "DM";
  n4sch:CoreClass false;
  n4sch:label "Ethnicity";
  n4sch:create false;
  n4sch:short_label "ETHNIC" .

<neo4j://graph.schema#Metadata/mdr3_2/Source%20Data%20Column/DM/ETHNIC> a <neo4j://graph.schema#Source%20Data%20Column>;
  n4sch:Order "21"^^<http://www.w3.org/2001/XMLSchema#long>;
  n4sch:_columnname_ "ETHNIC";
  n4sch:_domain_ "DM";
  n4sch:MAPS_TO_CLASS <neo4j://graph.schema#Class/Ethnicity>;
  n4sch:Core "Permissible" .

<neo4j://graph.schema#Class/Planned%20Arm%20Code> a n4sch:Class;
  n4sch:short_label "ARMCD";
  n4sch:label "Planned Arm Code";
  n4sch:create false;
  n4sch:CoreClass false;
  n4sch:from_domains "DM" .

<neo4j://graph.schema#Metadata/mdr3_2/Source%20Data%20Column/DM/ARMCD> a <neo4j://graph.schema#Source%20Data%20Column>;
  n4sch:_columnname_ "ARMCD";
  n4sch:MAPS_TO_CLASS <neo4j://graph.schema#Class/Planned%20Arm%20Code>;
  n4sch:_domain_ "DM";
  n4sch:Core "Required";
  n4sch:Order "22"^^<http://www.w3.org/2001/XMLSchema#long> .

<neo4j://graph.schema#Class/Description%20of%20Planned%20Arm> a n4sch:Class;
  n4sch:short_label "ARM";
  n4sch:create false;
  n4sch:from_domains "DM";
  n4sch:CoreClass false;
  n4sch:label "Description of Planned Arm" .

<neo4j://graph.schema#Metadata/mdr3_2/Source%20Data%20Column/DM/ARM> a <neo4j://graph.schema#Source%20Data%20Column>;
  n4sch:Order "23"^^<http://www.w3.org/2001/XMLSchema#long>;
  n4sch:Core "Required";
  n4sch:MAPS_TO_CLASS <neo4j://graph.schema#Class/Description%20of%20Planned%20Arm>;
  n4sch:_columnname_ "ARM";
  n4sch:_domain_ "DM" .

<neo4j://graph.schema#Class/Actual%20Arm%20Code> a n4sch:Class;
  n4sch:from_domains "DM";
  n4sch:CoreClass false;
  n4sch:create false;
  n4sch:short_label "ACTARMCD";
  n4sch:label "Actual Arm Code" .

<neo4j://graph.schema#Metadata/mdr3_2/Source%20Data%20Column/DM/ACTARMCD> a <neo4j://graph.schema#Source%20Data%20Column>;
  n4sch:MAPS_TO_CLASS <neo4j://graph.schema#Class/Actual%20Arm%20Code>;
  n4sch:_columnname_ "ACTARMCD";
  n4sch:_domain_ "DM";
  n4sch:Order "24"^^<http://www.w3.org/2001/XMLSchema#long>;
  n4sch:Core "Required" .

<neo4j://graph.schema#Class/Description%20of%20Actual%20Arm> a n4sch:Class;
  n4sch:label "Description of Actual Arm";
  n4sch:short_label "ACTARM";
  n4sch:create false;
  n4sch:from_domains "DM";
  n4sch:CoreClass false .

<neo4j://graph.schema#Metadata/mdr3_2/Source%20Data%20Column/DM/ACTARM> a <neo4j://graph.schema#Source%20Data%20Column>;
  n4sch:_columnname_ "ACTARM";
  n4sch:_domain_ "DM";
  n4sch:Order "25"^^<http://www.w3.org/2001/XMLSchema#long>;
  n4sch:Core "Required";
  n4sch:MAPS_TO_CLASS <neo4j://graph.schema#Class/Description%20of%20Actual%20Arm> .

<neo4j://graph.schema#Class/Country> a n4sch:Class;
  n4sch:label "Country";
  n4sch:short_label "COUNTRY";
  n4sch:from_domains "DM";
  n4sch:CoreClass false;
  n4sch:create false .

<neo4j://graph.schema#Metadata/mdr3_2/Source%20Data%20Column/DM/COUNTRY> a <neo4j://graph.schema#Source%20Data%20Column>;
  n4sch:_domain_ "DM";
  n4sch:MAPS_TO_CLASS <neo4j://graph.schema#Class/Country>;
  n4sch:_columnname_ "COUNTRY";
  n4sch:Order "26"^^<http://www.w3.org/2001/XMLSchema#long>;
  n4sch:Core "Required" .

<neo4j://graph.schema#Class/Demographics%20Date/Time%20of%20Collection> a n4sch:Class;
  n4sch:from_domains "DM";
  n4sch:label "Demographics Date/Time of Collection";
  n4sch:short_label "DMDTC";
  n4sch:CoreClass false;
  n4sch:create false;
  n4sch:SUBCLASS_OF <neo4j://graph.schema#Class/Date/Time%20of%20Collection> .

<neo4j://graph.schema#Metadata/mdr3_2/Source%20Data%20Column/DM/DMDTC> a <neo4j://graph.schema#Source%20Data%20Column>;
  n4sch:Order "27"^^<http://www.w3.org/2001/XMLSchema#long>;
  n4sch:Core "Permissible";
  n4sch:MAPS_TO_CLASS <neo4j://graph.schema#Class/Demographics%20Date/Time%20of%20Collection>;
  n4sch:_columnname_ "DMDTC";
  n4sch:_domain_ "DM" .

<neo4j://graph.schema#Class/Date/Time%20of%20Collection> a n4sch:Class;
  n4sch:CoreClass false;
  n4sch:label "Date/Time of Collection";
  n4sch:from_domains "DM";
  n4sch:short_label "--DTC";
  n4sch:create false;
  n4sch:SUBCLASS_OF <neo4j://graph.schema#Class/Date/Time> .

<neo4j://graph.schema#Class/Study%20Day%20of%20Collection> a n4sch:Class;
  n4sch:create false;
  n4sch:short_label "DMDY";
  n4sch:label "Study Day of Collection";
  n4sch:CoreClass false;
  n4sch:from_domains "DM";
  n4sch:SUBCLASS_OF <neo4j://graph.schema#Class/Study%20Day%20of%20Visit/Collection/Exam> .

<neo4j://graph.schema#Metadata/mdr3_2/Source%20Data%20Column/DM/DMDY> a <neo4j://graph.schema#Source%20Data%20Column>;
  n4sch:Order "28"^^<http://www.w3.org/2001/XMLSchema#long>;
  n4sch:Core "Permissible";
  n4sch:_columnname_ "DMDY";
  n4sch:_domain_ "DM";
  n4sch:MAPS_TO_CLASS <neo4j://graph.schema#Class/Study%20Day%20of%20Collection> .

<neo4j://graph.schema#Class/Study%20Day%20of%20Visit/Collection/Exam> a n4sch:Class;
  n4sch:create false;
  n4sch:from_domains "DM";
  n4sch:CoreClass false;
  n4sch:short_label "--DY";
  n4sch:label "Study Day of Visit/Collection/Exam";
  n4sch:SUBCLASS_OF <neo4j://graph.schema#Class/Study%20Day> .

<neo4j://graph.schema#Metadata/mdr3_2/Source%20Data%20Table/AE> n4sch:HAS_COLUMN <neo4j://graph.schema#Metadata/mdr3_2/Source%20Data%20Column/AE/AEPRESP>,
    <neo4j://graph.schema#Metadata/mdr3_2/Source%20Data%20Column/AE/AESDTH>, <neo4j://graph.schema#Metadata/mdr3_2/Source%20Data%20Column/AE/AERELNST>,
    <neo4j://graph.schema#Metadata/mdr3_2/Source%20Data%20Column/AE/AECONTRT>, <neo4j://graph.schema#Metadata/mdr3_2/Source%20Data%20Column/AE/AEENDY>,
    <neo4j://graph.schema#Metadata/mdr3_2/Source%20Data%20Column/AE/DOMAIN>, <neo4j://graph.schema#Metadata/mdr3_2/Source%20Data%20Column/AE/AESMIE>,
    <neo4j://graph.schema#Metadata/mdr3_2/Source%20Data%20Column/AE/AETOXGR>, <neo4j://graph.schema#Metadata/mdr3_2/Source%20Data%20Column/AE/AELLT>,
    <neo4j://graph.schema#Metadata/mdr3_2/Source%20Data%20Column/AE/AEMODIFY>, <neo4j://graph.schema#Metadata/mdr3_2/Source%20Data%20Column/AE/AESER>,
    <neo4j://graph.schema#Metadata/mdr3_2/Source%20Data%20Column/AE/AESPID>, <neo4j://graph.schema#Metadata/mdr3_2/Source%20Data%20Column/AE/AEPATT>,
    <neo4j://graph.schema#Metadata/mdr3_2/Source%20Data%20Column/AE/STUDYID>, <neo4j://graph.schema#Metadata/mdr3_2/Source%20Data%20Column/AE/AESOCCD>,
    <neo4j://graph.schema#Metadata/mdr3_2/Source%20Data%20Column/AE/SUBJID>, <neo4j://graph.schema#Metadata/mdr3_2/Source%20Data%20Column/AE/AESLIFE>,
    <neo4j://graph.schema#Metadata/mdr3_2/Source%20Data%20Column/AE/AESTDY>, <neo4j://graph.schema#Metadata/mdr3_2/Source%20Data%20Column/AE/AEACN>,
    <neo4j://graph.schema#Metadata/mdr3_2/Source%20Data%20Column/AE/AEPTCD>, <neo4j://graph.schema#Metadata/mdr3_2/Source%20Data%20Column/AE/AEENRTPT>,
    <neo4j://graph.schema#Metadata/mdr3_2/Source%20Data%20Column/AE/AESHOSP>, <neo4j://graph.schema#Metadata/mdr3_2/Source%20Data%20Column/AE/AESOD>,
    <neo4j://graph.schema#Metadata/mdr3_2/Source%20Data%20Column/AE/AEENTPT>, <neo4j://graph.schema#Metadata/mdr3_2/Source%20Data%20Column/AE/AEENRF>,
    <neo4j://graph.schema#Metadata/mdr3_2/Source%20Data%20Column/AE/AELOC>, <neo4j://graph.schema#Metadata/mdr3_2/Source%20Data%20Column/AE/EPOCH>,
    <neo4j://graph.schema#Metadata/mdr3_2/Source%20Data%20Column/AE/AESEQ>, <neo4j://graph.schema#Metadata/mdr3_2/Source%20Data%20Column/AE/AEGRPID>,
    <neo4j://graph.schema#Metadata/mdr3_2/Source%20Data%20Column/AE/AEHLGTCD>, <neo4j://graph.schema#Metadata/mdr3_2/Source%20Data%20Column/AE/USUBJID>,
    <neo4j://graph.schema#Metadata/mdr3_2/Source%20Data%20Column/AE/AETERM>, <neo4j://graph.schema#Metadata/mdr3_2/Source%20Data%20Column/AE/AEBDSYCD>,
    <neo4j://graph.schema#Metadata/mdr3_2/Source%20Data%20Column/AE/AESEV>, <neo4j://graph.schema#Metadata/mdr3_2/Source%20Data%20Column/AE/AEHLGT>,
    <neo4j://graph.schema#Metadata/mdr3_2/Source%20Data%20Column/AE/AESCAN>, <neo4j://graph.schema#Metadata/mdr3_2/Source%20Data%20Column/AE/AEENDTC>,
    <neo4j://graph.schema#Metadata/mdr3_2/Source%20Data%20Column/AE/AEDECOD>, <neo4j://graph.schema#Metadata/mdr3_2/Source%20Data%20Column/AE/AESTDTC>,
    <neo4j://graph.schema#Metadata/mdr3_2/Source%20Data%20Column/AE/AEREL>, <neo4j://graph.schema#Metadata/mdr3_2/Source%20Data%20Column/AE/AECAT>,
    <neo4j://graph.schema#Metadata/mdr3_2/Source%20Data%20Column/AE/AELLTCD>, <neo4j://graph.schema#Metadata/mdr3_2/Source%20Data%20Column/AE/AEHLTCD>,
    <neo4j://graph.schema#Metadata/mdr3_2/Source%20Data%20Column/AE/AEOUT>, <neo4j://graph.schema#Metadata/mdr3_2/Source%20Data%20Column/AE/AESCAT>,
    <neo4j://graph.schema#Metadata/mdr3_2/Source%20Data%20Column/AE/AESDISAB>, <neo4j://graph.schema#Metadata/mdr3_2/Source%20Data%20Column/AE/AEDUR>,
    <neo4j://graph.schema#Metadata/mdr3_2/Source%20Data%20Column/AE/AEBODSYS>, <neo4j://graph.schema#Metadata/mdr3_2/Source%20Data%20Column/AE/AESOC>,
    <neo4j://graph.schema#Metadata/mdr3_2/Source%20Data%20Column/AE/AEREFID>, <neo4j://graph.schema#Metadata/mdr3_2/Source%20Data%20Column/AE/AEHLT>,
    <neo4j://graph.schema#Metadata/mdr3_2/Source%20Data%20Column/AE/AESCONG>, <neo4j://graph.schema#Metadata/mdr3_2/Source%20Data%20Column/AE/AEACNOTH>;
  n4sch:MAPS_TO_CLASS <neo4j://graph.schema#Class/Adverse%20Events> .

<neo4j://graph.schema#Metadata/mdr3_2/Data%20Extraction%20Standard/MDR3_2> n4sch:HAS_TABLE
    <neo4j://graph.schema#Metadata/mdr3_2/Source%20Data%20Table/AE>, <neo4j://graph.schema#Metadata/mdr3_2/Source%20Data%20Table/DM> .

<neo4j://graph.schema#Metadata/mdr3_2/Source%20Data%20Table/DM> n4sch:MAPS_TO_CLASS
    <neo4j://graph.schema#Class/Demographics>;
  n4sch:HAS_COLUMN <neo4j://graph.schema#Metadata/mdr3_2/Source%20Data%20Column/DM/SEX>,
    <neo4j://graph.schema#Metadata/mdr3_2/Source%20Data%20Column/DM/AGEU>, <neo4j://graph.schema#Metadata/mdr3_2/Source%20Data%20Column/DM/RFPENDTC>,
    <neo4j://graph.schema#Metadata/mdr3_2/Source%20Data%20Column/DM/DTHFL>, <neo4j://graph.schema#Metadata/mdr3_2/Source%20Data%20Column/DM/INVNAM>,
    <neo4j://graph.schema#Metadata/mdr3_2/Source%20Data%20Column/DM/ACTARM>, <neo4j://graph.schema#Metadata/mdr3_2/Source%20Data%20Column/DM/RFICDTC>,
    <neo4j://graph.schema#Metadata/mdr3_2/Source%20Data%20Column/DM/RFSTDTC>, <neo4j://graph.schema#Metadata/mdr3_2/Source%20Data%20Column/DM/STUDYID>,
    <neo4j://graph.schema#Metadata/mdr3_2/Source%20Data%20Column/DM/RFXSTDTC>, <neo4j://graph.schema#Metadata/mdr3_2/Source%20Data%20Column/DM/ACTARMCD>,
    <neo4j://graph.schema#Metadata/mdr3_2/Source%20Data%20Column/DM/INVID>, <neo4j://graph.schema#Metadata/mdr3_2/Source%20Data%20Column/DM/BRTHDTC>,
    <neo4j://graph.schema#Metadata/mdr3_2/Source%20Data%20Column/DM/DTHDTC>, <neo4j://graph.schema#Metadata/mdr3_2/Source%20Data%20Column/DM/DMDTC>,
    <neo4j://graph.schema#Metadata/mdr3_2/Source%20Data%20Column/DM/SUBJID>, <neo4j://graph.schema#Metadata/mdr3_2/Source%20Data%20Column/DM/RFENDTC>,
    <neo4j://graph.schema#Metadata/mdr3_2/Source%20Data%20Column/DM/AGE>, <neo4j://graph.schema#Metadata/mdr3_2/Source%20Data%20Column/DM/DOMAIN>,
    <neo4j://graph.schema#Metadata/mdr3_2/Source%20Data%20Column/DM/RFXENDTC>, <neo4j://graph.schema#Metadata/mdr3_2/Source%20Data%20Column/DM/ARMCD>,
    <neo4j://graph.schema#Metadata/mdr3_2/Source%20Data%20Column/DM/RACE>, <neo4j://graph.schema#Metadata/mdr3_2/Source%20Data%20Column/DM/USUBJID>,
    <neo4j://graph.schema#Metadata/mdr3_2/Source%20Data%20Column/DM/DMDY>, <neo4j://graph.schema#Metadata/mdr3_2/Source%20Data%20Column/DM/SITEID>,
    <neo4j://graph.schema#Metadata/mdr3_2/Source%20Data%20Column/DM/ETHNIC>, <neo4j://graph.schema#Metadata/mdr3_2/Source%20Data%20Column/DM/ARM>,
    <neo4j://graph.schema#Metadata/mdr3_2/Source%20Data%20Column/DM/COUNTRY> .

<neo4j://graph.schema#Metadata/mdr3_2/Source%20Data%20Column/AE/STUDYID> n4sch:MAPS_TO_CLASS
    <neo4j://graph.schema#Class/Study> .

<neo4j://graph.schema#Metadata/mdr3_2/Source%20Data%20Column/AE/DOMAIN> n4sch:MAPS_TO_CLASS
    <neo4j://graph.schema#Class/Adverse%20Events%20Domain%20Abbreviation> .

<neo4j://graph.schema#Metadata/mdr3_2/Source%20Data%20Column/AE/USUBJID> n4sch:MAPS_TO_CLASS
    <neo4j://graph.schema#Class/Subject> .

<neo4j://graph.schema#Metadata/mdr3_2/Source%20Data%20Column/AE/SUBJID> n4sch:MAPS_TO_CLASS
    <neo4j://graph.schema#Class/Subject%20Identifier%20for%20the%20Study> .

<neo4j://graph.schema#Metadata/mdr3_2/Source%20Data%20Column/AE/AESEQ> n4sch:MAPS_TO_CLASS
    <neo4j://graph.schema#Class/Adverse%20Events%20Sequence%20Number> .

<neo4j://graph.schema#Metadata/mdr3_2/Source%20Data%20Column/AE/AEGRPID> n4sch:MAPS_TO_CLASS
    <neo4j://graph.schema#Class/Adverse%20Events%20Group%20ID> .

<neo4j://graph.schema#Metadata/mdr3_2/Source%20Data%20Column/AE/AEREFID> n4sch:MAPS_TO_CLASS
    <neo4j://graph.schema#Class/Adverse%20Events%20Reference%20ID> .

<neo4j://graph.schema#Metadata/mdr3_2/Source%20Data%20Column/AE/AESPID> n4sch:MAPS_TO_CLASS
    <neo4j://graph.schema#Class/Sponsor-Defined%20Identifier> .

<neo4j://graph.schema#Metadata/mdr3_2/Source%20Data%20Column/AE/AETERM> n4sch:MAPS_TO_CLASS
    <neo4j://graph.schema#Class/Reported%20Term%20for%20the%20Adverse%20Event> .

<neo4j://graph.schema#Metadata/mdr3_2/Source%20Data%20Column/AE/AEMODIFY> n4sch:MAPS_TO_CLASS
    <neo4j://graph.schema#Class/Adverse%20Events%20Modified%20Reported%20Term> .

<neo4j://graph.schema#Metadata/mdr3_2/Source%20Data%20Column/AE/AELLT> n4sch:MAPS_TO_CLASS
    <neo4j://graph.schema#Class/Adverse%20Events%20Lowest%20Level%20Term> .

<neo4j://graph.schema#Metadata/mdr3_2/Source%20Data%20Column/AE/AELLTCD> n4sch:MAPS_TO_CLASS
    <neo4j://graph.schema#Class/Adverse%20Events%20Lowest%20Level%20Term%20Code> .

<neo4j://graph.schema#Metadata/mdr3_2/Source%20Data%20Column/AE/AEDECOD> n4sch:MAPS_TO_CLASS
    <neo4j://graph.schema#Class/Adverse%20Events%20Dictionary-Derived%20Term> .

<neo4j://graph.schema#Metadata/mdr3_2/Source%20Data%20Column/AE/AEPTCD> n4sch:MAPS_TO_CLASS
    <neo4j://graph.schema#Class/Adverse%20Events%20Preferred%20Term%20Code> .

<neo4j://graph.schema#Metadata/mdr3_2/Source%20Data%20Column/AE/AEHLT> n4sch:MAPS_TO_CLASS
    <neo4j://graph.schema#Class/Adverse%20Events%20High%20Level%20Term> .

<neo4j://graph.schema#Metadata/mdr3_2/Source%20Data%20Column/AE/AEHLTCD> n4sch:MAPS_TO_CLASS
    <neo4j://graph.schema#Class/Adverse%20Events%20High%20Level%20Term%20Code> .

<neo4j://graph.schema#Metadata/mdr3_2/Source%20Data%20Column/AE/AEHLGT> n4sch:MAPS_TO_CLASS
    <neo4j://graph.schema#Class/Adverse%20Events%20High%20Level%20Group%20Term> .

<neo4j://graph.schema#Metadata/mdr3_2/Source%20Data%20Column/AE/AEHLGTCD> n4sch:MAPS_TO_CLASS
    <neo4j://graph.schema#Class/Adverse%20Events%20High%20Level%20Group%20Term%20Code> .

<neo4j://graph.schema#Metadata/mdr3_2/Source%20Data%20Column/AE/AECAT> n4sch:MAPS_TO_CLASS
    <neo4j://graph.schema#Class/Category%20for%20Adverse%20Event> .

<neo4j://graph.schema#Metadata/mdr3_2/Source%20Data%20Column/AE/AESCAT> n4sch:MAPS_TO_CLASS
    <neo4j://graph.schema#Class/Subcategory%20for%20Adverse%20Event> .

<neo4j://graph.schema#Metadata/mdr3_2/Source%20Data%20Column/AE/AEPRESP> n4sch:MAPS_TO_CLASS
    <neo4j://graph.schema#Class/Pre-Specified%20Adverse%20Event> .

<neo4j://graph.schema#Metadata/mdr3_2/Source%20Data%20Column/AE/AEBODSYS> n4sch:MAPS_TO_CLASS
    <neo4j://graph.schema#Class/Adverse%20Events%20Body%20System%20or%20Organ%20Class> .

<neo4j://graph.schema#Metadata/mdr3_2/Source%20Data%20Column/AE/AEBDSYCD> n4sch:MAPS_TO_CLASS
    <neo4j://graph.schema#Class/Adverse%20Events%20Body%20System%20or%20Organ%20Class%20Code> .

<neo4j://graph.schema#Metadata/mdr3_2/Source%20Data%20Column/AE/AESOC> n4sch:MAPS_TO_CLASS
    <neo4j://graph.schema#Class/Adverse%20Events%20Primary%20System%20Organ%20Class> .

<neo4j://graph.schema#Metadata/mdr3_2/Source%20Data%20Column/AE/AESOCCD> n4sch:MAPS_TO_CLASS
    <neo4j://graph.schema#Class/Adverse%20Events%20Primary%20System%20Organ%20Class%20Code> .

<neo4j://graph.schema#Metadata/mdr3_2/Source%20Data%20Column/AE/AELOC> n4sch:MAPS_TO_CLASS
    <neo4j://graph.schema#Class/Adverse%20Events%20Location%20of%20Event> .

<neo4j://graph.schema#Metadata/mdr3_2/Source%20Data%20Column/AE/AESEV> n4sch:MAPS_TO_CLASS
    <neo4j://graph.schema#Class/Severity/Intensity> .

<neo4j://graph.schema#Metadata/mdr3_2/Source%20Data%20Column/AE/AESER> n4sch:MAPS_TO_CLASS
    <neo4j://graph.schema#Class/Adverse%20Events%20Serious%20Event> .

<neo4j://graph.schema#Metadata/mdr3_2/Source%20Data%20Column/AE/AEACN> n4sch:MAPS_TO_CLASS
    <neo4j://graph.schema#Class/Adverse%20Events%20Action%20Taken%20with%20Study%20Treatment> .

<neo4j://graph.schema#Metadata/mdr3_2/Source%20Data%20Column/AE/AEACNOTH> n4sch:MAPS_TO_CLASS
    <neo4j://graph.schema#Class/Adverse%20Events%20Other%20Action%20Taken> .

<neo4j://graph.schema#Metadata/mdr3_2/Source%20Data%20Column/AE/AEREL> n4sch:MAPS_TO_CLASS
    <neo4j://graph.schema#Class/Adverse%20Events%20Causality> .

<neo4j://graph.schema#Metadata/mdr3_2/Source%20Data%20Column/AE/AERELNST> n4sch:MAPS_TO_CLASS
    <neo4j://graph.schema#Class/Adverse%20Events%20Relationship%20to%20Non-Study%20Treatment> .

<neo4j://graph.schema#Metadata/mdr3_2/Source%20Data%20Column/AE/AEPATT> n4sch:MAPS_TO_CLASS
    <neo4j://graph.schema#Class/Pattern%20of%20Adverse%20Event> .

<neo4j://graph.schema#Metadata/mdr3_2/Source%20Data%20Column/AE/AEOUT> n4sch:MAPS_TO_CLASS
    <neo4j://graph.schema#Class/Outcome%20of%20Adverse%20Event> .

<neo4j://graph.schema#Metadata/mdr3_2/Source%20Data%20Column/AE/AESCAN> n4sch:MAPS_TO_CLASS
    <neo4j://graph.schema#Class/Adverse%20Events%20Involves%20Cancer> .

<neo4j://graph.schema#Metadata/mdr3_2/Source%20Data%20Column/AE/AESCONG> n4sch:MAPS_TO_CLASS
    <neo4j://graph.schema#Class/Adverse%20Events%20Congenital%20Anomaly%20or%20Birth%20Defect> .

<neo4j://graph.schema#Metadata/mdr3_2/Source%20Data%20Column/AE/AESDISAB> n4sch:MAPS_TO_CLASS
    <neo4j://graph.schema#Class/Adverse%20Events%20Persist%20or%20Signif%20Disability/Incapacity> .

<neo4j://graph.schema#Metadata/mdr3_2/Source%20Data%20Column/AE/AESDTH> n4sch:MAPS_TO_CLASS
    <neo4j://graph.schema#Class/Adverse%20Events%20Results%20in%20Death> .

<neo4j://graph.schema#Metadata/mdr3_2/Source%20Data%20Column/AE/AESHOSP> n4sch:MAPS_TO_CLASS
    <neo4j://graph.schema#Class/Adverse%20Events%20Requires%20or%20Prolongs%20Hospitalization> .

<neo4j://graph.schema#Metadata/mdr3_2/Source%20Data%20Column/AE/AESLIFE> n4sch:MAPS_TO_CLASS
    <neo4j://graph.schema#Class/Adverse%20Events%20Is%20Life%20Threatening> .

<neo4j://graph.schema#Metadata/mdr3_2/Source%20Data%20Column/AE/AESOD> n4sch:MAPS_TO_CLASS
    <neo4j://graph.schema#Class/Adverse%20Events%20Occurred%20with%20Overdose> .

<neo4j://graph.schema#Metadata/mdr3_2/Source%20Data%20Column/AE/AESMIE> n4sch:MAPS_TO_CLASS
    <neo4j://graph.schema#Class/Adverse%20Events%20Other%20Medically%20Important%20Serious%20Event> .

<neo4j://graph.schema#Metadata/mdr3_2/Source%20Data%20Column/AE/AECONTRT> n4sch:MAPS_TO_CLASS
    <neo4j://graph.schema#Class/Adverse%20Events%20Concomitant%20or%20Additional%20Trtmnt%20Given> .

<neo4j://graph.schema#Metadata/mdr3_2/Source%20Data%20Column/DM/STUDYID> n4sch:MAPS_TO_CLASS
    <neo4j://graph.schema#Class/Study> .

<neo4j://graph.schema#Metadata/mdr3_2/Source%20Data%20Column/DM/USUBJID> n4sch:MAPS_TO_CLASS
    <neo4j://graph.schema#Class/Subject> .

<neo4j://graph.schema#Metadata/mdr3_2/Source%20Data%20Column/DM/SUBJID> n4sch:MAPS_TO_CLASS
    <neo4j://graph.schema#Class/Subject%20Identifier%20for%20the%20Study> .

<neo4j://graph.schema#Class/Timing> a n4sch:Class;
  n4sch:create false;
  n4sch:label "Timing";
  n4sch:CoreClass false;
  n4sch:short_label "T";
  n4sch:from_domains "AE,DM" .

<neo4j://graph.schema#Class/Study%20Day> a n4sch:Class;
  n4sch:create false;
  n4sch:short_label "DY";
  n4sch:label "Study Day";
  n4sch:CoreClass false;
  n4sch:from_domains "AE,DM";
  n4sch:SUBCLASS_OF <neo4j://graph.schema#Class/Timing> .

<neo4j://graph.schema#Class/Adverse%20Events%20Domain%20Abbreviation> n4sch:SUBCLASS_OF
    <neo4j://graph.schema#Class/Domain%20Abbreviation> .

<neo4j://graph.schema#Class/Adverse%20Events%20Sequence%20Number> n4sch:SUBCLASS_OF
    <neo4j://graph.schema#Class/Sequence%20Number> .

<neo4j://graph.schema#Class/Adverse%20Events%20Group%20ID> n4sch:SUBCLASS_OF <neo4j://graph.schema#Class/Group%20ID> .

<neo4j://graph.schema#Class/Adverse%20Events%20Reference%20ID> n4sch:SUBCLASS_OF <neo4j://graph.schema#Class/Reference%20ID> .

<neo4j://graph.schema#Class/Sponsor-Defined%20Identifier> n4sch:SUBCLASS_OF <neo4j://graph.schema#Class/Sponsor%20ID> .

<<<neo4j://graph.schema#Class/Reported%20Term> n4sch:CLASS_RELATES_TO <neo4j://graph.schema#Class/Subcategory>>>
  n4sch:relationship_type "IS_A" .

<neo4j://graph.schema#Class/Reported%20Term> n4sch:CLASS_RELATES_TO <neo4j://graph.schema#Class/Subcategory>,
    <neo4j://graph.schema#Class/Category> .

<<<neo4j://graph.schema#Class/Reported%20Term> n4sch:CLASS_RELATES_TO <neo4j://graph.schema#Class/Category>>>
  n4sch:relationship_type "IS_A" .

<<<neo4j://graph.schema#Class/Pre-specified> n4sch:CLASS_RELATES_TO <neo4j://graph.schema#Class/Reported%20Term>>>
  n4sch:relationship_type "QUALIFIES" .

<neo4j://graph.schema#Class/Pre-specified> n4sch:CLASS_RELATES_TO <neo4j://graph.schema#Class/Reported%20Term> .

<<<neo4j://graph.schema#Class/Primary%20System%20Organ%20Class> n4sch:CLASS_RELATES_TO <neo4j://graph.schema#Class/Reported%20Term>>>
  n4sch:relationship_type "QUALIFIES" .

<neo4j://graph.schema#Class/Primary%20System%20Organ%20Class> n4sch:CLASS_RELATES_TO
    <neo4j://graph.schema#Class/Reported%20Term> .

<neo4j://graph.schema#Class/Modified%20Reported%20Term> n4sch:CLASS_RELATES_TO <neo4j://graph.schema#Class/Reported%20Term> .

<<<neo4j://graph.schema#Class/Modified%20Reported%20Term> n4sch:CLASS_RELATES_TO <neo4j://graph.schema#Class/Reported%20Term>>>
  n4sch:relationship_type "QUALIFIES" .

<<<neo4j://graph.schema#Class/Lowest%20Level%20Term> n4sch:CLASS_RELATES_TO <neo4j://graph.schema#Class/Reported%20Term>>>
  n4sch:relationship_type "QUALIFIES" .

<neo4j://graph.schema#Class/Lowest%20Level%20Term> n4sch:CLASS_RELATES_TO <neo4j://graph.schema#Class/Reported%20Term> .

<neo4j://graph.schema#Class/Dictionary-Derived%20Term> n4sch:CLASS_RELATES_TO <neo4j://graph.schema#Class/Reported%20Term>,
    <neo4j://graph.schema#Class/Category>, <neo4j://graph.schema#Class/Subcategory> .

<<<neo4j://graph.schema#Class/Dictionary-Derived%20Term> n4sch:CLASS_RELATES_TO <neo4j://graph.schema#Class/Reported%20Term>>>
  n4sch:relationship_type "QUALIFIES" .

<neo4j://graph.schema#Class/High%20Level%20Term> n4sch:CLASS_RELATES_TO <neo4j://graph.schema#Class/Reported%20Term> .

<<<neo4j://graph.schema#Class/High%20Level%20Term> n4sch:CLASS_RELATES_TO <neo4j://graph.schema#Class/Reported%20Term>>>
  n4sch:relationship_type "QUALIFIES" .

<<<neo4j://graph.schema#Class/High%20Level%20Group%20Term> n4sch:CLASS_RELATES_TO <neo4j://graph.schema#Class/Reported%20Term>>>
  n4sch:relationship_type "QUALIFIES" .

<neo4j://graph.schema#Class/High%20Level%20Group%20Term> n4sch:CLASS_RELATES_TO <neo4j://graph.schema#Class/Reported%20Term> .

<neo4j://graph.schema#Class/Reported%20Term%20for%20the%20Adverse%20Event> n4sch:SUBCLASS_OF
    <neo4j://graph.schema#Class/Reported%20Term> .

<neo4j://graph.schema#Class/Adverse%20Events%20Modified%20Reported%20Term> n4sch:SUBCLASS_OF
    <neo4j://graph.schema#Class/Modified%20Reported%20Term> .

<neo4j://graph.schema#Class/Lowest%20Level%20Term%20Code> n4sch:CLASS_RELATES_TO <neo4j://graph.schema#Class/Lowest%20Level%20Term> .

<<<neo4j://graph.schema#Class/Lowest%20Level%20Term%20Code> n4sch:CLASS_RELATES_TO <neo4j://graph.schema#Class/Lowest%20Level%20Term>>>
  n4sch:relationship_type "QUALIFIES" .

<neo4j://graph.schema#Class/Adverse%20Events%20Lowest%20Level%20Term> n4sch:SUBCLASS_OF
    <neo4j://graph.schema#Class/Lowest%20Level%20Term> .

<neo4j://graph.schema#Class/Adverse%20Events%20Lowest%20Level%20Term%20Code> n4sch:SUBCLASS_OF
    <neo4j://graph.schema#Class/Lowest%20Level%20Term%20Code> .

<<<neo4j://graph.schema#Class/Dictionary-Derived%20Term> n4sch:CLASS_RELATES_TO <neo4j://graph.schema#Class/Category>>>
  n4sch:relationship_type "IS_A" .

<<<neo4j://graph.schema#Class/Dictionary-Derived%20Term> n4sch:CLASS_RELATES_TO <neo4j://graph.schema#Class/Subcategory>>>
  n4sch:relationship_type "IS_A" .

<neo4j://graph.schema#Class/Body%20System%20or%20Organ%20Class> n4sch:CLASS_RELATES_TO
    <neo4j://graph.schema#Class/Dictionary-Derived%20Term> .

<<<neo4j://graph.schema#Class/Body%20System%20or%20Organ%20Class> n4sch:CLASS_RELATES_TO <neo4j://graph.schema#Class/Dictionary-Derived%20Term>>>
  n4sch:relationship_type "QUALIFIES" .

<<<neo4j://graph.schema#Class/Preferred%20Term%20Code> n4sch:CLASS_RELATES_TO <neo4j://graph.schema#Class/Dictionary-Derived%20Term>>>
  n4sch:relationship_type "QUALIFIES" .

<neo4j://graph.schema#Class/Preferred%20Term%20Code> n4sch:CLASS_RELATES_TO <neo4j://graph.schema#Class/Dictionary-Derived%20Term> .

<neo4j://graph.schema#Class/Adverse%20Events%20Dictionary-Derived%20Term> n4sch:SUBCLASS_OF
    <neo4j://graph.schema#Class/Dictionary-Derived%20Term> .

<neo4j://graph.schema#Class/Adverse%20Events%20Preferred%20Term%20Code> n4sch:SUBCLASS_OF
    <neo4j://graph.schema#Class/Preferred%20Term%20Code> .

<neo4j://graph.schema#Class/High%20Level%20Term%20Code> n4sch:CLASS_RELATES_TO <neo4j://graph.schema#Class/High%20Level%20Term> .

<<<neo4j://graph.schema#Class/High%20Level%20Term%20Code> n4sch:CLASS_RELATES_TO <neo4j://graph.schema#Class/High%20Level%20Term>>>
  n4sch:relationship_type "QUALIFIES" .

<neo4j://graph.schema#Class/Adverse%20Events%20High%20Level%20Term> n4sch:SUBCLASS_OF
    <neo4j://graph.schema#Class/High%20Level%20Term> .

<neo4j://graph.schema#Class/Adverse%20Events%20High%20Level%20Term%20Code> n4sch:SUBCLASS_OF
    <neo4j://graph.schema#Class/High%20Level%20Term%20Code> .

<<<neo4j://graph.schema#Class/High%20Level%20Group%20Term%20Code> n4sch:CLASS_RELATES_TO <neo4j://graph.schema#Class/High%20Level%20Group%20Term>>>
  n4sch:relationship_type "QUALIFIES" .

<neo4j://graph.schema#Class/High%20Level%20Group%20Term%20Code> n4sch:CLASS_RELATES_TO
    <neo4j://graph.schema#Class/High%20Level%20Group%20Term> .

<neo4j://graph.schema#Class/Adverse%20Events%20High%20Level%20Group%20Term> n4sch:SUBCLASS_OF
    <neo4j://graph.schema#Class/High%20Level%20Group%20Term> .

<neo4j://graph.schema#Class/Adverse%20Events%20High%20Level%20Group%20Term%20Code>
  n4sch:SUBCLASS_OF <neo4j://graph.schema#Class/High%20Level%20Group%20Term%20Code> .

<neo4j://graph.schema#Class/Category> n4sch:CLASS_RELATES_TO <neo4j://graph.schema#Class/Subcategory> .

<<<neo4j://graph.schema#Class/Category> n4sch:CLASS_RELATES_TO <neo4j://graph.schema#Class/Subcategory>>>
  n4sch:relationship_type "HAS_SUBCATEGORY" .

<neo4j://graph.schema#Class/Category%20for%20Adverse%20Event> n4sch:SUBCLASS_OF <neo4j://graph.schema#Class/Category> .

<neo4j://graph.schema#Class/Subcategory%20for%20Adverse%20Event> n4sch:SUBCLASS_OF
    <neo4j://graph.schema#Class/Subcategory> .

<neo4j://graph.schema#Class/Pre-Specified%20Adverse%20Event> n4sch:SUBCLASS_OF <neo4j://graph.schema#Class/Pre-specified> .

<<<neo4j://graph.schema#Class/Body%20System%20or%20Organ%20Class%20Code> n4sch:CLASS_RELATES_TO <neo4j://graph.schema#Class/Body%20System%20or%20Organ%20Class>>>
  n4sch:relationship_type "QUALIFIES" .

<neo4j://graph.schema#Class/Body%20System%20or%20Organ%20Class%20Code> n4sch:CLASS_RELATES_TO
    <neo4j://graph.schema#Class/Body%20System%20or%20Organ%20Class> .

<neo4j://graph.schema#Class/Adverse%20Events%20Body%20System%20or%20Organ%20Class>
  n4sch:SUBCLASS_OF <neo4j://graph.schema#Class/Body%20System%20or%20Organ%20Class> .

<neo4j://graph.schema#Class/Adverse%20Events%20Body%20System%20or%20Organ%20Class%20Code>
  n4sch:SUBCLASS_OF <neo4j://graph.schema#Class/Body%20System%20or%20Organ%20Class%20Code> .

<neo4j://graph.schema#Class/Primary%20System%20Organ%20Class%20Code> n4sch:CLASS_RELATES_TO
    <neo4j://graph.schema#Class/Primary%20System%20Organ%20Class> .

<<<neo4j://graph.schema#Class/Primary%20System%20Organ%20Class%20Code> n4sch:CLASS_RELATES_TO <neo4j://graph.schema#Class/Primary%20System%20Organ%20Class>>>
  n4sch:relationship_type "QUALIFIES" .

<neo4j://graph.schema#Class/Adverse%20Events%20Primary%20System%20Organ%20Class> n4sch:SUBCLASS_OF
    <neo4j://graph.schema#Class/Primary%20System%20Organ%20Class> .

<neo4j://graph.schema#Class/Adverse%20Events%20Primary%20System%20Organ%20Class%20Code>
  n4sch:SUBCLASS_OF <neo4j://graph.schema#Class/Primary%20System%20Organ%20Class%20Code> .

<neo4j://graph.schema#Class/Adverse%20Events%20Location%20of%20Event> n4sch:SUBCLASS_OF
    <neo4j://graph.schema#Class/Location%20of%20Event> .

<neo4j://graph.schema#Class/Severity/Intensity> n4sch:SUBCLASS_OF <neo4j://graph.schema#Class/Severity> .

<neo4j://graph.schema#Class/Adverse%20Events%20Serious%20Event> n4sch:SUBCLASS_OF
    <neo4j://graph.schema#Class/Serious%20Event> .

<neo4j://graph.schema#Class/Adverse%20Events%20Action%20Taken%20with%20Study%20Treatment>
  n4sch:SUBCLASS_OF <neo4j://graph.schema#Class/Action%20Taken%20with%20Study%20Treatment> .

<neo4j://graph.schema#Class/Adverse%20Events%20Other%20Action%20Taken> n4sch:SUBCLASS_OF
    <neo4j://graph.schema#Class/Other%20Action%20Taken> .

<neo4j://graph.schema#Class/Adverse%20Events%20Causality> n4sch:SUBCLASS_OF <neo4j://graph.schema#Class/Causality> .

<neo4j://graph.schema#Class/Adverse%20Events%20Relationship%20to%20Non-Study%20Treatment>
  n4sch:SUBCLASS_OF <neo4j://graph.schema#Class/Relationship%20to%20Non-Study%20Treatment> .

<neo4j://graph.schema#Class/Pattern%20of%20Adverse%20Event> n4sch:SUBCLASS_OF <neo4j://graph.schema#Class/Pattern%20of%20Event> .

<neo4j://graph.schema#Class/Outcome%20of%20Adverse%20Event> n4sch:SUBCLASS_OF <neo4j://graph.schema#Class/Outcome%20of%20Event> .

<neo4j://graph.schema#Class/Adverse%20Events%20Involves%20Cancer> n4sch:SUBCLASS_OF
    <neo4j://graph.schema#Class/Involves%20Cancer> .

<neo4j://graph.schema#Class/Adverse%20Events%20Congenital%20Anomaly%20or%20Birth%20Defect>
  n4sch:SUBCLASS_OF <neo4j://graph.schema#Class/Congenital%20Anomaly%20or%20Birth%20Defect> .

<neo4j://graph.schema#Class/Adverse%20Events%20Persist%20or%20Signif%20Disability/Incapacity>
  n4sch:SUBCLASS_OF <neo4j://graph.schema#Class/Persist%20or%20Signif%20Disability/Incapacity> .

<neo4j://graph.schema#Class/Adverse%20Events%20Results%20in%20Death> n4sch:SUBCLASS_OF
    <neo4j://graph.schema#Class/Results%20in%20Death> .

<neo4j://graph.schema#Class/Adverse%20Events%20Requires%20or%20Prolongs%20Hospitalization>
  n4sch:SUBCLASS_OF <neo4j://graph.schema#Class/Requires%20or%20Prolongs%20Hospitalization> .

<neo4j://graph.schema#Class/Adverse%20Events%20Is%20Life%20Threatening> n4sch:SUBCLASS_OF
    <neo4j://graph.schema#Class/Is%20Life%20Threatening> .

<neo4j://graph.schema#Class/Adverse%20Events%20Occurred%20with%20Overdose> n4sch:SUBCLASS_OF
    <neo4j://graph.schema#Class/Occurred%20with%20Overdose> .

<neo4j://graph.schema#Class/Adverse%20Events%20Other%20Medically%20Important%20Serious%20Event>
  n4sch:SUBCLASS_OF <neo4j://graph.schema#Class/Other%20Medically%20Important%20Serious%20Event> .

<neo4j://graph.schema#Class/Adverse%20Events%20Concomitant%20or%20Additional%20Trtmnt%20Given>
  n4sch:SUBCLASS_OF <neo4j://graph.schema#Class/Concomitant%20or%20Additional%20Trtmnt%20Given> .

<neo4j://graph.schema#Class/Standard%20Toxicity%20Grade> n4sch:SUBCLASS_OF <neo4j://graph.schema#Class/Toxicity%20Grade> .
